File: data/0810B_2th_all.uxd
; (content of file \\Mai-b11e5c0abfd\d8\User\55373\0851539\0901\0810B_2th_all.raw)
_FILEVERSION = 2
_SAMPLE =
_+SAMPLE =
_SITE = Taiwan
_USER = Administrator
_GONIOMETER_CODE = 20
_STAGE_CODE = 13
; Goniometer : D8 theta/2theta, stage : Unknown
_SAMPLE_CHANGER_CODE = 0
_ATTACHMENTS_CODE = 0
_GONIOMETER_RADIUS = 300
_FIXED_DIVSLIT = 0.6
_FIXED_SAMPLESLIT = 0
_FIXED_DETSLIT = 0.1
_MONOCHROMATOR = 0
; Incident beam monochromator : None
_THIN_FILM = N
_BETA_FILTER = N
_FIXED_ANTISLIT = 0.6
_ANALYZER_CODE = 0
; Received beam analyzer : None
_DATEMEASURED = "01-Sep-2021 11:37:23"
_WL_UNIT = A
_WL1 = 1.5406
_WL2 = 1.54439
_WL3 = 1.39222
_WLRATIO = 0.5
_ANODE = Cu

; Data for range 1
_DRIVE = COUPLED
_STEPTIME = 0.2
_STEPSIZE = 0.02
_STEPMODE = C
_START = 34
_THETA = 16.3155
_2THETA = 34
_KHI = 0
_PHI = 5.5
_X = 0
_Y = 0
_Z = -0.1794
_DETECTOR = 1
; Detector type : Scintillation counter
_HV = 662
_GAIN = 80
_LLD = 0.545
_ULD = 1.917
_DETECTORSLIT = out
_AUX1 = 0
_AUX2 = 0
_AUX3 = 0
_TIMESTARTED = 16
_TEMP_RATE = -1
_TEMP_DELAY = -1
_KV = 40
_MA = 40
_RANGE_WL = 1.5406
_3DPLANE = 0
_V4_COUNTERS_MASK = 1
_V4_DRIVES_MASK = 0
_V4_ENCODERS_MASK = 0
_2THETACOUNTS = 1
; 2THETA  Cnt1_D1
  34.0000          3
  34.0600          5
  34.1200          3
  34.1800          3
  34.2400          4
  34.3000          3
  34.3600          4
  34.4200          5
  34.4800          4
  34.5400          1
  34.6000          2
  34.6600          2
  34.7200          4
  34.7800          5
  34.8400          3
  34.9000          4
  34.9600          8
  35.0200          3
  35.0800          4
  35.1400          4
  35.2000          3
  35.2600          2
  35.3200          3
  35.3800          2
  35.4400          6
  35.5000          4
  35.5600          1
  35.6200          5
  35.6800          2
  35.7400          6
  35.8000          4
  35.8600          3
  35.9200          2
  35.9800          5
  36.0400          1
  36.1000          1
  36.1600          5
  36.2200          6
  36.2800          5
  36.3400          2
  36.4000          3
  36.4600          4
  36.5200          6
  36.5800          5
  36.6400          5
  36.7000          3
  36.7600          1
  36.8200          4
  36.8800          1
  36.9400          0
  37.0000          2
  37.0600          3
  37.1200          0
  37.1800          4
  37.2400          4
  37.3000          2
  37.3600          3
  37.4200          2
  37.4800          3
  37.5400          1
  37.6000          2
  37.6600          3
  37.7200          3
  37.7800          4
  37.8400          4
  37.9000          7
  37.9600          3
  38.0200          7
  38.0800          8
  38.1400          9
  38.2000         21
  38.2600         14
  38.3200         10
  38.3800          9
  38.4400          9
  38.5000          8
  38.5600          9
  38.6200          3
  38.6800          4
  38.7400          3
  38.8000          1
  38.8600          1
  38.9200          2
  38.9800          4
  39.0400          5
  39.1000          5
  39.1600          4
  39.2200          5
  39.2800          3
  39.3400          3
  39.4000          6
  39.4600          1
  39.5200          2
  39.5800          2
  39.6400          2
  39.7000          4
  39.7600          5
  39.8200          2
  39.8800          4
  39.9400          2
  40.0000          3
  40.0600          4
  40.1200          4
  40.1800          5
  40.2400          5
  40.3000          2
  40.3600          1
  40.4200          2
  40.4800          2
  40.5400          5
  40.6000          0
  40.6600          5
  40.7200          7
  40.7800          4
  40.8400          5
  40.9000          0
  40.9600          1
  41.0200          3
  41.0800          3
  41.1400          4
  41.2000          7
  41.2600          3
  41.3200          9
  41.3800          8
  41.4400          1
  41.5000          4
  41.5600          3
  41.6200          1
  41.6800          8
  41.7400          0
  41.8000          2
  41.8600          3
  41.9200          4
  41.9800          2
  42.0400          5
  42.1000          3
  42.1600          1
  42.2200          3
  42.2800          2
  42.3400          2
  42.4000          4
  42.4600          3
  42.5200          3
  42.5800          5
  42.6400          5
  42.7000          4
  42.7600          3
  42.8200          5
  42.8800          3
  42.9400          2
  43.0000          3
  43.0600          1
  43.1200          4
  43.1800          3
  43.2400          1
  43.3000          1
  43.3600          0
  43.4200          3
  43.4800          3
  43.5400          2
  43.6000          3
  43.6600          2
  43.7200          3
  43.7800          3
  43.8400          4
  43.9000          7
  43.9600          4
  44.0200          2
  44.0800          3
  44.1400          3
  44.2000          6
  44.2600          3
  44.3200          1
  44.3800          3
  44.4400          7
  44.5000          3
  44.5600          6
  44.6200          6
  44.6800          5
  44.7400          1
  44.8000          6
  44.8600          7
  44.9200          3
  44.9800          2
  45.0400          5
  45.1000          3
  45.1600          5
  45.2200          3
  45.2800          4
  45.3400          2
  45.4000          2
  45.4600          5
  45.5200          2
  45.5800          1
  45.6400          0
  45.7000          4
  45.7600          0
  45.8200          6
  45.8800          1
  45.9400          5
  46.0000          2
  46.0600          1
  46.1200          2
  46.1800          6
  46.2400          2
  46.3000          1
  46.3600          1
  46.4200          3
  46.4800          3
  46.5400          1
  46.6000          1
  46.6600          2
  46.7200          3
  46.7800          5
  46.8400          2
  46.9000          1
  46.9600          1
  47.0200          2
  47.0800          3
  47.1400          3
  47.2000          1
  47.2600          3
  47.3200          0
  47.3800          1
  47.4400          4
  47.5000          3
  47.5600          1
  47.6200          5
  47.6800          4
  47.7400          2
  47.8000          3
  47.8600          2
  47.9200          1
  47.9800          2
  48.0400          0
  48.1000          3
  48.1600          2
  48.2200          2
  48.2800          3
  48.3400          1
  48.4000          1
  48.4600          6
  48.5200          2
  48.5800          0
  48.6400          3
  48.7000          1
  48.7600          4
  48.8200          3
  48.8800          3
  48.9400          3
  49.0000          2
  49.0600          2
  49.1200          4
  49.1800          3
  49.2400          1
  49.3000          1
  49.3600          2
  49.4200          1
  49.4800          1
  49.5400          1
  49.6000          3
  49.6600          2
  49.7200          5
  49.7800          1
  49.8400          5
  49.9000          2
  49.9600          2
  50.0200          6
  50.0800          3
  50.1400          1
  50.2000          3
  50.2600          1
  50.3200          1
  50.3800          4
  50.4400          4
  50.5000          2
  50.5600          0
  50.6200          0
  50.6800          2
  50.7400          3
  50.8000          1
  50.8600          4
  50.9200          0
  50.9800          5
  51.0400          1
  51.1000          2
  51.1600          4
  51.2200          1
  51.2800          4
  51.3400          2
  51.4000          0
  51.4600          0
  51.5200          5
  51.5800          1
  51.6400          2
  51.7000          3
  51.7600          5
  51.8200          4
  51.8800          2
  51.9400          2
  52.0000          4
  52.0600          2
  52.1200          3
  52.1800          6
  52.2400          0
  52.3000          1
  52.3600          2
  52.4200          2
  52.4800          4
  52.5400          1
  52.6000          1
  52.6600          3
  52.7200          4
  52.7800          1
  52.8400          1
  52.9000          1
  52.9600          2
  53.0200          1
  53.0800          3
  53.1400          2
  53.2000          2
  53.2600          3
  53.3200          3
  53.3800          2
  53.4400          3
  53.5000          1
  53.5600          2
  53.6200          0
  53.6800          6
  53.7400          3
  53.8000          1
  53.8600          3
  53.9200          2
  53.9800          0
  54.0400          1
  54.1000          3
  54.1600          3
  54.2200          4
  54.2800          3
  54.3400          1
  54.4000          0
  54.4600          1
  54.5200          1
  54.5800          5
  54.6400          4
  54.7000          1
  54.7600          2
  54.8200          3
  54.8800          1
  54.9400          2
  55.0000          2
  55.0600          1
  55.1200          3
  55.1800          2
  55.2400          1
  55.3000          3
  55.3600          0
  55.4200          5
  55.4800          2
  55.5400          3
  55.6000          3
  55.6600          4
  55.7200          2
  55.7800          2
  55.8400          2
  55.9000          0
  55.9600          2
  56.0200          2
  56.0800          4
  56.1400          1
  56.2000          5
  56.2600          1
  56.3200          2
  56.3800          1
  56.4400          3
  56.5000          2
  56.5600          6
  56.6200          3
  56.6800          2
  56.7400          4
  56.8000          2
  56.8600          0
  56.9200          0
  56.9800          1
  57.0400          2
  57.1000          5
  57.1600          2
  57.2200          3
  57.2800          2
  57.3400          6
  57.4000          1
  57.4600          1
  57.5200          2
  57.5800          0
  57.6400          1
  57.7000          0
  57.7600          2
  57.8200          3
  57.8800          2
  57.9400          2
  58.0000          1
  58.0600          3
  58.1200          1
  58.1800          1
  58.2400          0
  58.3000          1
  58.3600          6
  58.4200          3
  58.4800          0
  58.5400          1
  58.6000          3
  58.6600          0
  58.7200          1
  58.7800          0
  58.8400          2
  58.9000          4
  58.9600          3
  59.0200          1
  59.0800          2
  59.1400          3
  59.2000          0
  59.2600          5
  59.3200          1
  59.3800          1
  59.4400          2
  59.5000          4
  59.5600          2
  59.6200          1
  59.6800          2
  59.7400          3
  59.8000          0
  59.8600          0
  59.9200          1
  59.9800          3
  60.0400          3
  60.1000          3
  60.1600          1
  60.2200          1
  60.2800          2
  60.3400          2
  60.4000          1
  60.4600          1
  60.5200          2
  60.5800          2
  60.6400          1
  60.7000          4
  60.7600          1
  60.8200          2
  60.8800          3
  60.9400          2
  61.0000          6
  61.0600          4
  61.1200          3
  61.1800          3
  61.2400          2
  61.3000          1
  61.3600          1
  61.4200          2
  61.4800          1
  61.5400          0
  61.6000          3
  61.6600          2
  61.7200          1
  61.7800          0
  61.8400          1
  61.9000          3
  61.9600          1
  62.0200          1
  62.0800          3
  62.1400          4
  62.2000          3
  62.2600          2
  62.3200          2
  62.3800          3
  62.4400          2
  62.5000          5
  62.5600          1
  62.6200          1
  62.6800          3
  62.7400          2
  62.8000          4
  62.8600          1
  62.9200          3
  62.9800          1
  63.0400          4
  63.1000          2
  63.1600          5
  63.2200          2
  63.2800          0
  63.3400          1
  63.4000          3
  63.4600          4
  63.5200          4
  63.5800          1
  63.6400          1
  63.7000          4
  63.7600          4
  63.8200          1
  63.8800          3
  63.9400          3
  64.0000          2
  64.0600          0
  64.1200          2
  64.1800          2
  64.2400          0
  64.3000          1
  64.3600          0
  64.4200          1
  64.4800          6
  64.5400          2
  64.6000          3
  64.6600          3
  64.7200          3
  64.7800          5
  64.8400          6
  64.9000          1
  64.9600          5
  65.0200          1
  65.0800          7
  65.1400          3
  65.2000          1
  65.2600          3
  65.3200          3
  65.3800          3
  65.4400          2
  65.5000          2
  65.5600          4
  65.6200          6
  65.6800          2
  65.7400          2
  65.8000          0
  65.8600          3
  65.9200          2
  65.9800          3
  66.0400          1
  66.1000          3
  66.1600          0
  66.2200          0
  66.2800          0
  66.3400          1
  66.4000          2
  66.4600          2
  66.5200          1
  66.5800          2
  66.6400          1
  66.7000          1
  66.7600          0
  66.8200          0
  66.8800          1
  66.9400          0
  67.0000          1
  67.0600          1
  67.1200          6
  67.1800          0
  67.2400          5
  67.3000          3
  67.3600          0
  67.4200          1
  67.4800          2
  67.5400          5
  67.6000          1
  67.6600          2
  67.7200          1
  67.7800          1
  67.8400          3
  67.9000          0
  67.9600          1
  68.0200          1
  68.0800          3
  68.1400          2
  68.2000          1
  68.2600          1
  68.3200          3
  68.3800          3
  68.4400          0
  68.5000          0
  68.5600          3
  68.6200          6
  68.6800          2
  68.7400          3
  68.8000          1
  68.8600          2
  68.9200          1
  68.9800          3
  69.0400          0
  69.1000          3
  69.1600          2
  69.2200          0
  69.2800          3
  69.3400          4
  69.4000          0
  69.4600          1
  69.5200          1
  69.5800          2
  69.6400          4
  69.7000          1
  69.7600          1
  69.8200          1
  69.8800          1
  69.9400          3
  70.0000          3
  70.0600          0
  70.1200          2
  70.1800          1
  70.2400          2
  70.3000          1
  70.3600          0
  70.4200          1
  70.4800          4
  70.5400          2
  70.6000          3
  70.6600          5
  70.7200          1
  70.7800          3
  70.8400          2
  70.9000          4
  70.9600          3
  71.0200          2
  71.0800          2
  71.1400          7
  71.2000          4
  71.2600          3
  71.3200          2
  71.3800          2
  71.4400          3
  71.5000          1
  71.5600          1
  71.6200          1
  71.6800          1
  71.7400          1
  71.8000          3
  71.8600          2
  71.9200          4
  71.9800          1
  72.0400          1
  72.1000          0
  72.1600          2
  72.2200          4
  72.2800          1
  72.3400          2
  72.4000          3
  72.4600          2
  72.5200          2
  72.5800          1
  72.6400          3
  72.7000          2
  72.7600          3
  72.8200          1
  72.8800          4
  72.9400          2
  73.0000          4
  73.0600          1
  73.1200          1
  73.1800          1
  73.2400          1
  73.3000          1
  73.3600          0
  73.4200          1
  73.4800          2
  73.5400          2
  73.6000          2
  73.6600          6
  73.7200          2
  73.7800          1
  73.8400          4
  73.9000          1
  73.9600          2
  74.0200          1
  74.0800          2
  74.1400          2
  74.2000          1
  74.2600          3
  74.3200          3
  74.3800          3
  74.4400          2
  74.5000          0
  74.5600          2
  74.6200          2
  74.6800          1
  74.7400          1
  74.8000          1
  74.8600          3
  74.9200          1
  74.9800          2
  75.0400          2
  75.1000          3
  75.1600          0
  75.2200          5
  75.2800          2
  75.3400          0
  75.4000          2
  75.4600          0
  75.5200          1
  75.5800          2
  75.6400          5
  75.7000          4
  75.7600          1
  75.8200          0
  75.8800          0
  75.9400          3
  76.0000          1
  76.0600          1
  76.1200          2
  76.1800          2
  76.2400          2
  76.3000          0
  76.3600          1
  76.4200          3
  76.4800          2
  76.5400          0
  76.6000          4
  76.6600          3
  76.7200          1
  76.7800          3
  76.8400          1
  76.9000          2
  76.9600          3
  77.0200          4
  77.0800          0
  77.1400          0
  77.2000          5
  77.2600          3
  77.3200          2
  77.3800          3
  77.4400          4
  77.5000          3
  77.5600          3
  77.6200          2
  77.6800          2
  77.7400          3
  77.8000          4
  77.8600          6
  77.9200          0
  77.9800          4
  78.0400          2
  78.1000          7
  78.1600          2
  78.2200          6
  78.2800          1
  78.3400          2
  78.4000          1
  78.4600          3
  78.5200          0
  78.5800          4
  78.6400          2
  78.7000          2
  78.7600          1
  78.8200          0
  78.8800          5
  78.9400          4
  79.0000          2
  79.0600          1
  79.1200          0
  79.1800          3
  79.2400          1
  79.3000          1
  79.3600          2
  79.4200          4
  79.4800          2
  79.5400          1
  79.6000          3
  79.6600          3
  79.7200          3
  79.7800          1
  79.8400          1
  79.9000          2
  79.9600          1
  80.0200          2
  80.0800          3
  80.1400          1
  80.2000          2
  80.2600          1
  80.3200          0
  80.3800          4
  80.4400          2
  80.5000          1
  80.5600          3
  80.6200          2
  80.6800          3
  80.7400          4
  80.8000          1
  80.8600          4
  80.9200          2
  80.9800          1
  81.0400          3
  81.1000          2
  81.1600          0
  81.2200          5
  81.2800          1
  81.3400          2
  81.4000          1
  81.4600          1
  81.5200          3
  81.5800          4
  81.6400          2
  81.7000          0
  81.7600          0
  81.8200          5
  81.8800          2
  81.9400          2
  82.0000          1
  82.0600          1
  82.1200          2
  82.1800          1
  82.2400          3
  82.3000          1
  82.3600          1
  82.4200          0
  82.4800          2
  82.5400          2
  82.6000          4
  82.6600          4
  82.7200          0
  82.7800          1
  82.8400          1
  82.9000          1
  82.9600          2
  83.0200          0
  83.0800          1
  83.1400          1
  83.2000          1
  83.2600          3
  83.3200          0
  83.3800          3
  83.4400          0
  83.5000          3
  83.5600          0
  83.6200          2
  83.6800          0
  83.7400          2
  83.8000          2
  83.8600          2
  83.9200          0
  83.9800          2
  84.0400          3
  84.1000          1
  84.1600          1
  84.2200          1
  84.2800          1
  84.3400          1
  84.4000          1
  84.4600          3
  84.5200          4
  84.5800          4
  84.6400          1
  84.7000          1
  84.7600          3
  84.8200          7
  84.8800          3
  84.9400          0
  85.0000          1
  85.0600          2
  85.1200          4
  85.1800          1
  85.2400          3
  85.3000          1
  85.3600          1
  85.4200          2
  85.4800          4
  85.5400          6
  85.6000          6
  85.6600          1
  85.7200          2
  85.7800          2
  85.8400          3
  85.9000          1
  85.9600          1
  86.0200          2
  86.0800          1
  86.1400          3
  86.2000          2
  86.2600          0
  86.3200          3
  86.3800          1
  86.4400          0
  86.5000          2
  86.5600          2
  86.6200          1
  86.6800          5
  86.7400          1
  86.8000          2
  86.8600          2
  86.9200          1
  86.9800          2
  87.0400          1
  87.1000          2
  87.1600          2
  87.2200          2
  87.2800          2
  87.3400          1
  87.4000          2
  87.4600          3
  87.5200          2
  87.5800          3
  87.6400          1
  87.7000          4
  87.7600          4
  87.8200          3
  87.8800          3
  87.9400          0
  88.0000          2
  88.0600          2
  88.1200          2
  88.1800          1
  88.2400          1
  88.3000          3
  88.3600          1
  88.4200          0
  88.4800          1
  88.5400          0
  88.6000          1
  88.6600          1
  88.7200          2
  88.7800          2
  88.8400          1
  88.9000          1
  88.9600          1
  89.0200          2
  89.0800          1
  89.1400          2
  89.2000          2
  89.2600          2
  89.3200          2
  89.3800          0
  89.4400          2
  89.5000          2
  89.5600          1
  89.6200          4
  89.6800          2
  89.7400          0
  89.8000          1
  89.8600          1
  89.9200          0
  89.9800          1
  90.0400          3
  90.1000          1
  90.1600          1
  90.2200          3
  90.2800          3
  90.3400          5
  90.4000          2
  90.4600          2
  90.5200          1
  90.5800          3
  90.6400          1
  90.7000          2
  90.7600          3
  90.8200          2
  90.8800          5
  90.9400          1
  91.0000          3
  91.0600          4
  91.1200          2
  91.1800          5
  91.2400          4
  91.3000          1
  91.3600          3
  91.4200          2
  91.4800          2
  91.5400          2
  91.6000          2
  91.6600          1
  91.7200          2
  91.7800          2
  91.8400          1
  91.9000          0
  91.9600          4
  92.0200          1
  92.0800          1
  92.1400          4
  92.2000          1
  92.2600          0
  92.3200          3
  92.3800          1
  92.4400          5
  92.5000          1
  92.5600          5
  92.6200          2
  92.6800          0
  92.7400          3
  92.8000          1
  92.8600          1
  92.9200          2
  92.9800          1
  93.0400          5
  93.1000          3
  93.1600          2
  93.2200          2
  93.2800          2
  93.3400          2
  93.4000          1
  93.4600          2
  93.5200          3
  93.5800          2
  93.6400          1
  93.7000          0
  93.7600          3
  93.8200          1
  93.8800          3
  93.9400          2
  94.0000          1
  94.0600          2
  94.1200          2
  94.1800          3
  94.2400          2
  94.3000          3
  94.3600          2
  94.4200          6
  94.4800          3
  94.5400          0
  94.6000          5
  94.6600          3
  94.7200          0
  94.7800          1
  94.8400          1
  94.9000          3
  94.9600          3
  95.0200          0
  95.0800          4
  95.1400          3
  95.2000          1
  95.2600          1
  95.3200          2
  95.3800          1
  95.4400          1
  95.5000          2
  95.5600          4
  95.6200          1
  95.6800          2
  95.7400          0
  95.8000          1
  95.8600          6
  95.9200          3
  95.9800          5
  96.0400          1
  96.1000          1
  96.1600          1
  96.2200          3
  96.2800          1
  96.3400          7
  96.4000          3
  96.4600          4
  96.5200          1
  96.5800          3
  96.6400          3
  96.7000          2
  96.7600          0
  96.8200          2
  96.8800          3
  96.9400          4
  97.0000          2
  97.0600          0
  97.1200          1
  97.1800          2
  97.2400          3
  97.3000          1
  97.3600          1
  97.4200          4
  97.4800          0
  97.5400          1
  97.6000          2
  97.6600          5
  97.7200          0
  97.7800          3
  97.8400          1
  97.9000          1
  97.9600          1
  98.0200          1
  98.0800          3
  98.1400          2
  98.2000          2
  98.2600          4
  98.3200          2
  98.3800          1
  98.4400          2
  98.5000          4
  98.5600          4
  98.6200          3
  98.6800          1
  98.7400          3
  98.8000          1
  98.8600          1
  98.9200          3
  98.9800          5
  99.0400          2
  99.1000          3
  99.1600          0
  99.2200          5
  99.2800          4
  99.3400          7
  99.4000          7
  99.4600          1
  99.5200          1
  99.5800          1
  99.6400          5
  99.7000          1
  99.7600          2
  99.8200          4
  99.8800          0
  99.9400          2
 100.0000          1
 100.0600          1
 100.1200          1
 100.1800          1
 100.2400          0
 100.3000          2
 100.3600          3
 100.4200          2
 100.4800          2
 100.5400          2
 100.6000          3
 100.6600          2
 100.7200          4
 100.7800          0
 100.8400          3
 100.9000          2
 100.9600          2
 101.0200          6
 101.0800          2
 101.1400          1
 101.2000          1
 101.2600          3
 101.3200          0
 101.3800          2
 101.4400          5
 101.5000          3
 101.5600          0
 101.6200          3
 101.6800          2
 101.7400          3
 101.8000          1
 101.8600          2
 101.9200          4
 101.9800          4
 102.0400          1
 102.1000          2
 102.1600          5
 102.2200          0
 102.2800          1
 102.3400          4
 102.4000          3
 102.4600          3
 102.5200          2
 102.5800          7
 102.6400          9
 102.7000          9
 102.7600          5
 102.8200          4
 102.8800          3
 102.9400          1
 103.0000          3
 103.0600          3
 103.1200          1
 103.1800          0
 103.2400          3
 103.3000          1
 103.3600          5
 103.4200          1
 103.4800          2
 103.5400          4
 103.6000          1
 103.6600          4
 103.7200          2
 103.7800          3
 103.8400          4
 103.9000          6
 103.9600          1
 104.0200          2
 104.0800          3
 104.1400          0
 104.2000          2
 104.2600          3
 104.3200          5
 104.3800          6
 104.4400          5
 104.5000          4
 104.5600          4
 104.6200          0
 104.6800          2
 104.7400          0
 104.8000          2
 104.8600          2
 104.9200          5
 104.9800          1
 105.0400          1
 105.1000          3
 105.1600          2
 105.2200          3
 105.2800          4
 105.3400          6
 105.4000          2
 105.4600          4
 105.5200          2
 105.5800          1
 105.6400          0
 105.7000          4
 105.7600          4
 105.8200          7
 105.8800          3
 105.9400          4
 106.0000          4
 106.0600          3
 106.1200          2
 106.1800          2
 106.2400          2
 106.3000          2
 106.3600          3
 106.4200          2
 106.4800          3
 106.5400          2
 106.6000          2
 106.6600          4
 106.7200          2
 106.7800          5
 106.8400          3
 106.9000          4
 106.9600          2
 107.0200          3
 107.0800          2
 107.1400          0
 107.2000          3
 107.2600          2
 107.3200          4
 107.3800          0
 107.4400          2
 107.5000          0
 107.5600          2
 107.6200          3
 107.6800          3
 107.7400          5
 107.8000          2
 107.8600          3
 107.9200          1
 107.9800          9
 108.0400          3
 108.1000          1
 108.1600          0
 108.2200          3
 108.2800          2
 108.3400          4
 108.4000          4
 108.4600          2
 108.5200          4
 108.5800          1
 108.6400          2
 108.7000          1
 108.7600          1
 108.8200          1
 108.8800          7
 108.9400          3
 109.0000          4
 109.0600          2
 109.1200          3
 109.1800          2
 109.2400          2
 109.3000          1
 109.3600          3
 109.4200          3
 109.4800          1
 109.5400          3
 109.6000          2
 109.6600          2
 109.7200          4
 109.7800          4
 109.8400          2
 109.9000          3
 109.9600          1
 110.0200          3
 110.0800          8
 110.1400          4
 110.2000          2
 110.2600          5
 110.3200          1
 110.3800          3
 110.4400          1
 110.5000          4
 110.5600          4
 110.6200          2
 110.6800          2
 110.7400          4
 110.8000          4
 110.8600          1
 110.9200          6
 110.9800          3
 111.0400          2
 111.1000          6
 111.1600          4
 111.2200          6
 111.2800          6
 111.3400          4
 111.4000          3
 111.4600          4
 111.5200          3
 111.5800          4
 111.6400          9
 111.7000          3
 111.7600          8
 111.8200          4
 111.8800          5
 111.9400          4
 112.0000          4
 112.0600          4
 112.1200          5
 112.1800          8
 112.2400          2
 112.3000          6
 112.3600          2
 112.4200          3
 112.4800          1
 112.5400          2
 112.6000          3
 112.6600          5
 112.7200          3
 112.7800          3
 112.8400          4
 112.9000          6
 112.9600          4
 113.0200          3
 113.0800          7
 113.1400          7
 113.2000         10
 113.2600         13
 113.3200         14
 113.3800         15
 113.4400         10
 113.5000         10
 113.5600         17
 113.6200         12
 113.6800         15
 113.7400          7
 113.8000          9
 113.8600          7
 113.9200         16
 113.9800         12
 114.0400         14
 114.1000         14
 114.1600         14
 114.2200         11
 114.2800         13
 114.3400          8
 114.4000         18
 114.4600         10
 114.5200         15
 114.5800         14
 114.6400         29
 114.7000         14
 114.7600         15
 114.8200         10
 114.8800         23
 114.9400         24
 115.0000         17
 115.0600         22
 115.1200         22
 115.1800         21
 115.2400         21
 115.3000         22
 115.3600         29
 115.4200         25
 115.4800         18
 115.5400         23
 115.6000         19
 115.6600         12
 115.7200         33
 115.7800         29
 115.8400         31
 115.9000         30
 115.9600         24
 116.0200         28
 116.0800         30
 116.1400         28
 116.2000         30
 116.2600         30
 116.3200         28
 116.3800         41
 116.4400         51
 116.5000         39
 116.5600         39
 116.6200         37
 116.6800         26
 116.7400         49
 116.8000         41
 116.8600         40
 116.9200         45
 116.9800         41
 117.0400         38
 117.1000         44
 117.1600         34
 117.2200         43
 117.2800         61
 117.3400         41
 117.4000         56
 117.4600         73
 117.5200         57
 117.5800         61
 117.6400         71
 117.7000         88
 117.7600         73
 117.8200         80
 117.8800         84
 117.9400         92
 118.0000         91
 118.0600         96
 118.1200        123
 118.1800        114
 118.2400        127
 118.3000        146
 118.3600        167
 118.4200        165
 118.4800        235
 118.5400        273
 118.6000        335
 118.6600        459
 118.7200        536
 118.7800        530
 118.8400        490
 118.9000        466
 118.9600        518
 119.0200        567
 119.0800        730
 119.1400        943
 119.2000       1308
 119.2600       2076
 119.3200       3612
 119.3800       8261
 119.4400      22710
 119.5000      66212
 119.5600      53888
 119.6200      19448
 119.6800       7046
 119.7400       3924
 119.8000       3600
 119.8600       5561
 119.9200      13244
 119.9800      30985
 120.0400      31446
 120.1000      13757
 120.1600       4662
 120.2200       2195
 120.2800       1412
 120.3400        978
 120.4000        739
 120.4600        657
 120.5200        581
 120.5800        487
 120.6400        390
 120.7000        367
 120.7600        288
 120.8200        286
 120.8800        301
 120.9400        244
 121.0000        217
 121.0600        216
 121.1200        159
 121.1800        159
 121.2400        179
 121.3000        153
 121.3600        163
 121.4200        159
 121.4800        136
 121.5400        150
 121.6000        117
 121.6600        126
 121.7200         99
 121.7800        121
 121.8400        128
 121.9000        109
 121.9600        100
 122.0000         93