File: data/0810A_2th_all.uxd
; (content of file \\Mai-b11e5c0abfd\d8\User\55373\0851539\0831\0810\0810A_2th_1.raw)
_FILEVERSION = 2
_SAMPLE =
_+SAMPLE =
_SITE = Taiwan
_USER = Administrator
_GONIOMETER_CODE = 20
_STAGE_CODE = 13
; Goniometer : D8 theta/2theta, stage : Unknown
_SAMPLE_CHANGER_CODE = 0
_ATTACHMENTS_CODE = 0
_GONIOMETER_RADIUS = 300
_FIXED_DIVSLIT = 0.6
_FIXED_SAMPLESLIT = 0
_FIXED_DETSLIT = 0.1
_MONOCHROMATOR = 0
; Incident beam monochromator : None
_THIN_FILM = N
_BETA_FILTER = N
_FIXED_ANTISLIT = 0.6
_ANALYZER_CODE = 0
; Received beam analyzer : None
_DATEMEASURED = "31-Aug-2021 18:20:17"
_WL_UNIT = A
_WL1 = 1.5406
_WL2 = 1.54439
_WL3 = 1.39222
_WLRATIO = 0.5
_ANODE = Cu

; Data for range 1
_DRIVE = COUPLED
_STEPTIME = 0.2
_STEPSIZE = 0.02
_STEPMODE = C
_START = 35
_THETA = 16.425
_2THETA = 35
_KHI = 0
_PHI = -178
_X = 0
_Y = 0
_Z = -0.1364
_DETECTOR = 1
; Detector type : Scintillation counter
_HV = 662
_GAIN = 80
_LLD = 0.545
_ULD = 1.917
_DETECTORSLIT = out
_AUX1 = 0
_AUX2 = 0
_AUX3 = 0
_TIMESTARTED = 16
_TEMP_RATE = -1
_TEMP_DELAY = -1
_KV = 40
_MA = 40
_RANGE_WL = 1.5406
_3DPLANE = 0
_V4_COUNTERS_MASK = 1
_V4_DRIVES_MASK = 0
_V4_ENCODERS_MASK = 0
_2THETACOUNTS = 1
; 2THETA  Cnt1_D1
  35.0000          3
  35.0600          4
  35.1200          3
  35.1800          4
  35.2400          3
  35.3000          5
  35.3600          4
  35.4200          2
  35.4800          4
  35.5400          2
  35.6000          3
  35.6600          4
  35.7200          1
  35.7800          4
  35.8400          4
  35.9000          5
  35.9600          5
  36.0200          2
  36.0800          2
  36.1400          2
  36.2000          5
  36.2600          4
  36.3200          3
  36.3800          3
  36.4400          2
  36.5000          2
  36.5600          1
  36.6200          4
  36.6800          2
  36.7400          2
  36.8000          5
  36.8600          2
  36.9200          2
  36.9800          5
  37.0400          3
  37.1000          6
  37.1600          5
  37.2200          3
  37.2800          2
  37.3400          2
  37.4000          4
  37.4600          3
  37.5200          4
  37.5800          5
  37.6400          4
  37.7000          4
  37.7600         10
  37.8200          5
  37.8800          9
  37.9400          5
  38.0000          6
  38.0600          9
  38.1200         11
  38.1800         14
  38.2400         16
  38.3000         21
  38.3600          7
  38.4200          9
  38.4800          9
  38.5400          2
  38.6000          4
  38.6600          2
  38.7200          6
  38.7800          1
  38.8400          2
  38.9000          2
  38.9600          0
  39.0200          4
  39.0800          4
  39.1400          4
  39.2000          3
  39.2600          7
  39.3200          6
  39.3800          2
  39.4400          0
  39.5000          3
  39.5600          3
  39.6200          3
  39.6800          4
  39.7400          2
  39.8000          3
  39.8600         10
  39.9200          3
  39.9800          3
  40.0400          5
  40.1000          6
  40.1600          2
  40.2200          7
  40.2800          4
  40.3400          2
  40.4000          2
  40.4600          5
  40.5200          1
  40.5800          2
  40.6400          1
  40.7000          4
  40.7600          2
  40.8200          7
  40.8800          4
  40.9400          2
  41.0000          2
  41.0600          6
  41.1200          4
  41.1800          2
  41.2400          5
  41.3000          1
  41.3600          3
  41.4200          3
  41.4800          1
  41.5400          4
  41.6000          3
  41.6600          5
  41.7200          1
  41.7800          4
  41.8400          3
  41.9000          3
  41.9600          1
  42.0200          6
  42.0800          7
  42.1400          1
  42.2000          3
  42.2600          3
  42.3200          3
  42.3800          2
  42.4400          3
  42.5000          1
  42.5600          2
  42.6200          2
  42.6800          4
  42.7400          2
  42.8000          1
  42.8600          0
  42.9200          1
  42.9800          6
  43.0400          4
  43.1000          1
  43.1600          3
  43.2200          0
  43.2800          3
  43.3400          5
  43.4000          3
  43.4600          3
  43.5200          2
  43.5800          6
  43.6400          3
  43.7000          4
  43.7600          0
  43.8200          1
  43.8800          6
  43.9400          5
  44.0000          5
  44.0600          4
  44.1200          6
  44.1800          6
  44.2400          5
  44.3000          2
  44.3600          3
  44.4200         10
  44.4800          8
  44.5400          7
  44.6000          3
  44.6600          9
  44.7200          8
  44.7800          9
  44.8400          3
  44.9000          2
  44.9600          4
  45.0200          7
  45.0800          2
  45.1400          5
  45.2000          4
  45.2600          8
  45.3200          1
  45.3800          4
  45.4400          1
  45.5000          3
  45.5600          2
  45.6200          4
  45.6800          1
  45.7400          5
  45.8000          3
  45.8600          2
  45.9200          4
  45.9800          4
  46.0400          1
  46.1000          7
  46.1600          4
  46.2200          0
  46.2800          4
  46.3400          3
  46.4000          0
  46.4600          4
  46.5200          1
  46.5800          2
  46.6400          2
  46.7000          2
  46.7600          7
  46.8200          6
  46.8800          2
  46.9400          2
  47.0000          0
  47.0600          4
  47.1200          2
  47.1800          5
  47.2400          3
  47.3000          2
  47.3600          1
  47.4200          5
  47.4800          3
  47.5400          4
  47.6000          3
  47.6600          4
  47.7200          6
  47.7800          1
  47.8400          4
  47.9000          3
  47.9600          3
  48.0200          2
  48.0800          3
  48.1400          6
  48.2000          1
  48.2600          3
  48.3200          3
  48.3800          3
  48.4400          5
  48.5000          2
  48.5600          3
  48.6200          5
  48.6800          2
  48.7400          1
  48.8000          1
  48.8600          3
  48.9200          3
  48.9800          1
  49.0400          4
  49.1000          3
  49.1600          2
  49.2200          3
  49.2800          2
  49.3400          2
  49.4000          0
  49.4600          1
  49.5200          4
  49.5800          4
  49.6400          4
  49.7000          2
  49.7600          2
  49.8200          3
  49.8800          3
  49.9400          4
  50.0000          1
  50.0600          4
  50.1200          1
  50.1800          1
  50.2400          1
  50.3000          5
  50.3600          1
  50.4200          3
  50.4800          3
  50.5400          3
  50.6000          2
  50.6600          3
  50.7200          6
  50.7800          5
  50.8400          2
  50.9000          7
  50.9600          1
  51.0200          2
  51.0800          1
  51.1400          0
  51.2000          2
  51.2600          4
  51.3200          1
  51.3800          0
  51.4400          1
  51.5000          0
  51.5600          2
  51.6200          0
  51.6800          2
  51.7400          1
  51.8000          3
  51.8600          3
  51.9200          3
  51.9800          3
  52.0400          2
  52.1000          3
  52.1600          2
  52.2200          2
  52.2800          3
  52.3400          3
  52.4000          2
  52.4600          2
  52.5200          0
  52.5800          1
  52.6400          4
  52.7000          0
  52.7600          6
  52.8200          5
  52.8800          3
  52.9400          4
  53.0000          1
  53.0600          4
  53.1200          3
  53.1800          3
  53.2400          3
  53.3000          1
  53.3600          1
  53.4200          3
  53.4800          0
  53.5400          2
  53.6000          1
  53.6600          3
  53.7200          3
  53.7800          3
  53.8400          3
  53.9000          0
  53.9600          4
  54.0200          2
  54.0800          5
  54.1400          2
  54.2000          2
  54.2600          3
  54.3200          3
  54.3800          2
  54.4400          2
  54.5000          2
  54.5600          1
  54.6200          3
  54.6800          2
  54.7400          2
  54.8000          2
  54.8600          2
  54.9200          3
  54.9800          1
  55.0400          0
  55.1000          0
  55.1600          2
  55.2200          3
  55.2800          5
  55.3400          4
  55.4000          9
  55.4600          4
  55.5200          4
  55.5800          3
  55.6400          5
  55.7000          1
  55.7600          3
  55.8200          2
  55.8800          1
  55.9400          4
  56.0000          1
  56.0600          6
  56.1200          3
  56.1800          2
  56.2400          5
  56.3000          2
  56.3600          0
  56.4200          3
  56.4800          1
  56.5400          2
  56.6000          2
  56.6600          2
  56.7200          6
  56.7800          3
  56.8400          2
  56.9000          1
  56.9600          1
  57.0200          2
  57.0800          4
  57.1400          2
  57.2000          2
  57.2600          2
  57.3200          3
  57.3800          2
  57.4400          3
  57.5000          2
  57.5600          4
  57.6200          2
  57.6800          1
  57.7400          3
  57.8000          2
  57.8600          5
  57.9200          1
  57.9800          2
  58.0400          1
  58.1000          3
  58.1600          2
  58.2200          1
  58.2800          1
  58.3400          3
  58.4000          1
  58.4600          4
  58.5200          3
  58.5800          4
  58.6400          1
  58.7000          1
  58.7600          4
  58.8200          3
  58.8800          2
  58.9400          0
  59.0000          3
  59.0600          2
  59.1200          6
  59.1800          2
  59.2400          1
  59.3000          3
  59.3600          1
  59.4200          2
  59.4800          5
  59.5400          1
  59.6000          3
  59.6600          1
  59.7200          3
  59.7800          2
  59.8400          1
  59.9000          1
  59.9600          3
  60.0200          1
  60.0800          2
  60.1400          1
  60.2000          0
  60.2600          3
  60.3200          3
  60.3800          4
  60.4400          2
  60.5000          3
  60.5600          4
  60.6200          0
  60.6800          3
  60.7400          3
  60.8000          4
  60.8600          0
  60.9200          5
  60.9800          2
  61.0400          2
  61.1000          1
  61.1600          2
  61.2200          3
  61.2800          3
  61.3400          1
  61.4000          3
  61.4600          3
  61.5200          2
  61.5800          0
  61.6400          3
  61.7000          4
  61.7600          2
  61.8200          0
  61.8800          4
  61.9400          3
  62.0000          1
  62.0600          2
  62.1200          4
  62.1800          4
  62.2400          2
  62.3000          0
  62.3600          2
  62.4200          3
  62.4800          3
  62.5400          2
  62.6000          1
  62.6600          4
  62.7200          2
  62.7800          3
  62.8400          1
  62.9000          2
  62.9600          0
  63.0200          2
  63.0800          3
  63.1400          4
  63.2000          3
  63.2600          2
  63.3200          2
  63.3800          0
  63.4400          3
  63.5000          3
  63.5600          3
  63.6200          1
  63.6800          5
  63.7400          8
  63.8000          2
  63.8600          0
  63.9200          1
  63.9800          2
  64.0400          0
  64.1000          6
  64.1600          2
  64.2200          3
  64.2800          3
  64.3400          1
  64.4000          3
  64.4600          5
  64.5200          3
  64.5800          5
  64.6400          8
  64.7000          2
  64.7600          5
  64.8200          8
  64.8800          4
  64.9400          4
  65.0000          4
  65.0600          2
  65.1200          4
  65.1800          3
  65.2400          2
  65.3000          4
  65.3600          5
  65.4200          4
  65.4800          8
  65.5400          3
  65.6000          2
  65.6600          1
  65.7200          4
  65.7800          1
  65.8400          1
  65.9000          1
  65.9600          3
  66.0200          3
  66.0800          4
  66.1400          3
  66.2000          4
  66.2600          1
  66.3200          1
  66.3800          0
  66.4400          3
  66.5000          3
  66.5600          2
  66.6200          4
  66.6800          4
  66.7400          2
  66.8000          2
  66.8600          2
  66.9200          2
  66.9800          2
  67.0400          5
  67.1000          4
  67.1600          2
  67.2200          2
  67.2800          4
  67.3400          2
  67.4000          3
  67.4600          4
  67.5200          5
  67.5800          3
  67.6400          3
  67.7000          1
  67.7600          2
  67.8200          1
  67.8800          2
  67.9400          4
  68.0000          3
  68.0600          2
  68.1200          2
  68.1800          4
  68.2400          3
  68.3000          1
  68.3600          4
  68.4200          1
  68.4800          1
  68.5400          4
  68.6000          0
  68.6600          4
  68.7200          2
  68.7800          6
  68.8400          2
  68.9000          4
  68.9600          3
  69.0200          3
  69.0800          4
  69.1400          2
  69.2000          5
  69.2600          1
  69.3200          3
  69.3800          2
  69.4400          2
  69.5000          7
  69.5600          2
  69.6200          4
  69.6800          3
  69.7400          2
  69.8000          3
  69.8600          1
  69.9200          2
  69.9800          3
  70.0400          3
  70.1000          1
  70.1600          2
  70.2200          3
  70.2800          3
  70.3400          3
  70.4000          3
  70.4600          7
  70.5200          2
  70.5800          3
  70.6400          6
  70.7000          0
  70.7600          6
  70.8200          0
  70.8800          2
  70.9400          1
  71.0000          2
  71.0600          2
  71.1200          1
  71.1800          3
  71.2400          4
  71.3000          3
  71.3600          2
  71.4200          2
  71.4800          4
  71.5400          2
  71.6000          1
  71.6600          4
  71.7200          1
  71.7800          3
  71.8400          4
  71.9000          3
  71.9600          2
  72.0200          3
  72.0800          2
  72.1400          1
  72.2000          2
  72.2600          4
  72.3200          2
  72.3800          3
  72.4400          4
  72.5000          1
  72.5600          1
  72.6200          2
  72.6800          4
  72.7400          0
  72.8000          2
  72.8600          3
  72.9200          1
  72.9800          4
  73.0400          2
  73.1000          2
  73.1600          2
  73.2200          1
  73.2800          0
  73.3400          1
  73.4000          0
  73.4600          0
  73.5200          5
  73.5800          3
  73.6400          4
  73.7000          1
  73.7600          1
  73.8200          3
  73.8800          0
  73.9400          5
  74.0000          4
  74.0600          5
  74.1200          0
  74.1800          1
  74.2400          4
  74.3000          2
  74.3600          4
  74.4200          5
  74.4800          0
  74.5400          4
  74.6000          1
  74.6600          2
  74.7200          1
  74.7800          2
  74.8400          2
  74.9000          1
  74.9600          1
  75.0200          1
  75.0800          3
  75.1400          1
  75.2000          2
  75.2600          3
  75.3200          2
  75.3800          3
  75.4400          3
  75.5000          0
  75.5600          3
  75.6200          1
  75.6800          2
  75.7400          1
  75.8000          1
  75.8600          3
  75.9200          5
  75.9800          0
  76.0400          2
  76.1000          1
  76.1600          3
  76.2200          3
  76.2800          1
  76.3400          3
  76.4000          1
  76.4600          1
  76.5200          2
  76.5800          2
  76.6400          1
  76.7000          1
  76.7600          4
  76.8200          2
  76.8800          4
  76.9400          6
  77.0000          5
  77.0600          3
  77.1200          3
  77.1800          5
  77.2400          6
  77.3000          2
  77.3600          1
  77.4200          4
  77.4800          3
  77.5400          3
  77.6000          1
  77.6600          6
  77.7200          3
  77.7800          5
  77.8400          7
  77.9000          7
  77.9600          3
  78.0200          0
  78.0800          2
  78.1400          3
  78.2000          5
  78.2600          1
  78.3200          4
  78.3800          2
  78.4400          2
  78.5000          4
  78.5600          2
  78.6200          2
  78.6800          7
  78.7400          2
  78.8000          2
  78.8600          2
  78.9200          1
  78.9800          4
  79.0400          3
  79.1000          2
  79.1600          0
  79.2200          4
  79.2800          1
  79.3400          1
  79.4000          2
  79.4600          1
  79.5200          4
  79.5800          1
  79.6400          2
  79.7000          5
  79.7600          1
  79.8200          2
  79.8800          3
  79.9400          3
  80.0000          6
  80.0600          1
  80.1200          2
  80.1800          1
  80.2400          1
  80.3000          2
  80.3600          1
  80.4200          3
  80.4800          3
  80.5400          0
  80.6000          5
  80.6600          1
  80.7200          2
  80.7800          6
  80.8400          1
  80.9000          2
  80.9600          4
  81.0200          0
  81.0800          1
  81.1400          1
  81.2000          2
  81.2600          3
  81.3200          3
  81.3800          2
  81.4400          1
  81.5000          3
  81.5600          2
  81.6200          6
  81.6800          4
  81.7400          5
  81.8000          1
  81.8600          1
  81.9200          2
  81.9800          2
  82.0400          2
  82.1000          3
  82.1600          2
  82.2200          5
  82.2800          3
  82.3400          6
  82.4000          2
  82.4600          0
  82.5200          0
  82.5800          3
  82.6400          3
  82.7000          3
  82.7600          2
  82.8200          3
  82.8800          2
  82.9400          2
  83.0000          2
  83.0600          0
  83.1200          2
  83.1800          1
  83.2400          1
  83.3000          0
  83.3600          5
  83.4200          1
  83.4800          2
  83.5400          0
  83.6000          2
  83.6600          1
  83.7200          1
  83.7800          1
  83.8400          5
  83.9000          1
  83.9600          1
  84.0200          0
  84.0800          1
  84.1400          2
  84.2000          3
  84.2600          2
  84.3200          1
  84.3800          2
  84.4400          5
  84.5000          4
  84.5600          4
  84.6200          1
  84.6800          2
  84.7400          2
  84.8000          2
  84.8600          0
  84.9200          1
  84.9800          1
  85.0400          2
  85.1000          1
  85.1600          0
  85.2200          1
  85.2800          1
  85.3400          4
  85.4000          3
  85.4600          2
  85.5200          3
  85.5800          3
  85.6400          2
  85.7000          1
  85.7600          2
  85.8200          4
  85.8800          4
  85.9400          5
  86.0000          5
  86.0600          0
  86.1200          1
  86.1800          6
  86.2400          1
  86.3000          0
  86.3600          3
  86.4200          4
  86.4800          3
  86.5400          3
  86.6000          1
  86.6600          4
  86.7200          4
  86.7800          2
  86.8400          1
  86.9000          0
  86.9600          3
  87.0200          6
  87.0800          1
  87.1400          1
  87.2000          2
  87.2600          5
  87.3200          2
  87.3800          3
  87.4400          6
  87.5000          2
  87.5600          3
  87.6200          1
  87.6800          4
  87.7400          2
  87.8000          0
  87.8600          0
  87.9200          2
  87.9800          3
  88.0400          4
  88.1000          3
  88.1600          4
  88.2200          2
  88.2800          2
  88.3400          2
  88.4000          2
  88.4600          2
  88.5200          4
  88.5800          8
  88.6400          3
  88.7000          1
  88.7600          3
  88.8200          1
  88.8800          1
  88.9400          2
  89.0000          2
  89.0600          0
  89.1200          0
  89.1800          2
  89.2400          1
  89.3000          1
  89.3600          0
  89.4200          3
  89.4800          0
  89.5400          2
  89.6000          0
  89.6600          2
  89.7200          2
  89.7800          3
  89.8400          1
  89.9000          3
  89.9600          2
  90.0200          1
  90.0800          1
  90.1400          2
  90.2000          1
  90.2600          3
  90.3200          0
  90.3800          2
  90.4400          2
  90.5000          3
  90.5600          1
  90.6200          0
  90.6800          3
  90.7400          0
  90.8000          5
  90.8600          5
  90.9200          1
  90.9800          6
  91.0400          1
  91.1000          3
  91.1600          0
  91.2200          3
  91.2800          2
  91.3400          1
  91.4000          4
  91.4600          3
  91.5200          0
  91.5800          3
  91.6400          2
  91.7000          0
  91.7600          4
  91.8200          0
  91.8800          6
  91.9400          3
  92.0000          0
  92.0600          2
  92.1200          2
  92.1800          1
  92.2400          2
  92.3000          2
  92.3600          3
  92.4200          1
  92.4800          3
  92.5400          1
  92.6000          0
  92.6600          3
  92.7200          2
  92.7800          1
  92.8400          1
  92.9000          2
  92.9600          2
  93.0200          2
  93.0800          3
  93.1400          1
  93.2000          3
  93.2600          2
  93.3200          3
  93.3800          4
  93.4400          2
  93.5000          1
  93.5600          4
  93.6200          4
  93.6800          0
  93.7400          1
  93.8000          3
  93.8600          4
  93.9200          7
  93.9800          5
  94.0400          4
  94.1000          0
  94.1600          1
  94.2200          3
  94.2800          3
  94.3400          1
  94.4000          2
  94.4600          2
  94.5200          2
  94.5800          1
  94.6400          1
  94.7000          2
  94.7600          0
  94.8200          0
  94.8800          3
  94.9400          0
  95.0000          4
  95.0600          2
  95.1200          4
  95.1800          2
  95.2400          2
  95.3000          1
  95.3600          3
  95.4200          3
  95.4800          1
  95.5400          2
  95.6000          1
  95.6600          2
  95.7200          1
  95.7800          4
  95.8400          3
  95.9000          2
  95.9600          3
  96.0200          1
  96.0800          1
  96.1400          1
  96.2000          3
  96.2600          0
  96.3200          4
  96.3800          2
  96.4400          3
  96.5000          1
  96.5600          4
  96.6200          1
  96.6800          2
  96.7400          0
  96.8000          1
  96.8600          1
  96.9200          0
  96.9800          0
  97.0400          1
  97.1000          1
  97.1600          2
  97.2200          2
  97.2800          4
  97.3400          2
  97.4000          1
  97.4600          2
  97.5200          0
  97.5800          1
  97.6400          3
  97.7000          2
  97.7600          0
  97.8200          3
  97.8800          5
  97.9400          1
  98.0000          5
  98.0600          1
  98.1200          1
  98.1800          5
  98.2400          4
  98.3000          1
  98.3600          1
  98.4200          2
  98.4800          1
  98.5400          4
  98.6000          0
  98.6600          0
  98.7200          1
  98.7800          4
  98.8400          1
  98.9000          3
  98.9600          2
  99.0200          2
  99.0800          1
  99.1400          4
  99.2000          4
  99.2600          5
  99.3200          3
  99.3800          3
  99.4400          0
  99.5000          2
  99.5600          1
  99.6200          1
  99.6800          4
  99.7400          0
  99.8000          6
  99.8600          1
  99.9200          3
  99.9800          2
 100.0400          7
 100.1000          4
 100.1600          3
 100.2200          2
 100.2800          4
 100.3400          3
 100.4000          3
 100.4600          3
 100.5200          4
 100.5800          2
 100.6400          0
 100.7000          1
 100.7600          3
 100.8200          0
 100.8800          2
 100.9400          4
 101.0000          4
 101.0600          0
 101.1200          0
 101.1800          3
 101.2400          1
 101.3000          0
 101.3600          3
 101.4200          1
 101.4800          3
 101.5400          3
 101.6000          0
 101.6600          1
 101.7200          3
 101.7800          3
 101.8400          3
 101.9000          3
 101.9600          3
 102.0200          3
 102.0800          2
 102.1400          0
 102.2000          1
 102.2600          0
 102.3200          3
 102.3800          5
 102.4400          3
 102.5000          2
 102.5600          9
 102.6200         18
 102.6800         19
 102.7400          6
 102.8000          6
 102.8600          2
 102.9200          1
 102.9800          4
 103.0400          5
 103.1000          2
 103.1600          2
 103.2200          2
 103.2800          1
 103.3400          3
 103.4000          1
 103.4600          3
 103.5200          2
 103.5800          6
 103.6400          5
 103.7000          0
 103.7600          4
 103.8200          2
 103.8800          1
 103.9400          3
 104.0000          5
 104.0600          3
 104.1200          1
 104.1800          3
 104.2400          3
 104.3000          3
 104.3600          2
 104.4200          3
 104.4800          1
 104.5400          4
 104.6000          3
 104.6600          3
 104.7200          1
 104.7800          4
 104.8400          1
 104.9000          4
 104.9600          0
 105.0200          1
 105.0800          1
 105.1400          4
 105.2000          1
 105.2600          5
 105.3200          5
 105.3800          1
 105.4400          1
 105.5000          2
 105.5600          2
 105.6200          3
 105.6800          2
 105.7400          4
 105.8000          1
 105.8600          5
 105.9200          1
 105.9800          1
 106.0400          1
 106.1000          0
 106.1600          2
 106.2200          6
 106.2800          2
 106.3400          4
 106.4000          3
 106.4600          1
 106.5200          2
 106.5800          4
 106.6400          3
 106.7000          7
 106.7600          4
 106.8200          4
 106.8800          4
 106.9400          4
 107.0000          4
 107.0600          6
 107.1200          2
 107.1800          2
 107.2400          3
 107.3000          3
 107.3600          1
 107.4200          3
 107.4800          6
 107.5400          2
 107.6000          2
 107.6600          1
 107.7200          1
 107.7800          1
 107.8400          2
 107.9000          7
 107.9600          4
 108.0200          1
 108.0800          4
 108.1400          4
 108.2000          1
 108.2600          3
 108.3200          2
 108.3800          1
 108.4400          5
 108.5000          5
 108.5600          2
 108.6200          5
 108.6800          1
 108.7400          7
 108.8000          5
 108.8600          5
 108.9200          3
 108.9800          3
 109.0400          2
 109.1000          4
 109.1600          5
 109.2200          6
 109.2800          4
 109.3400          5
 109.4000          3
 109.4600          3
 109.5200          3
 109.5800          6
 109.6400          2
 109.7000          6
 109.7600          6
 109.8200          1
 109.8800          3
 109.9400          1
 110.0000          5
 110.0600          0
 110.1200          5
 110.1800          4
 110.2400          6
 110.3000          1
 110.3600          4
 110.4200          4
 110.4800          2
 110.5400          1
 110.6000          3
 110.6600          5
 110.7200          7
 110.7800          4
 110.8400          4
 110.9000          4
 110.9600          1
 111.0200          5
 111.0800          3
 111.1400          5
 111.2000          9
 111.2600          3
 111.3200          8
 111.3800          5
 111.4400          4
 111.5000          1
 111.5600          5
 111.6200          3
 111.6800          4
 111.7400          4
 111.8000          7
 111.8600          3
 111.9200          4
 111.9800          4
 112.0400          3
 112.1000          3
 112.1600          3
 112.2200          3
 112.2800          4
 112.3400          6
 112.4000          5
 112.4600          2
 112.5200          7
 112.5800          3
 112.6400          6
 112.7000          5
 112.7600          7
 112.8200          5
 112.8800          7
 112.9400          4
 113.0000          5
 113.0600         16
 113.1200         24
 113.1800         27
 113.2400         29
 113.3000         22
 113.3600         36
 113.4200         26
 113.4800         24
 113.5400         30
 113.6000         25
 113.6600         23
 113.7200         33
 113.7800         31
 113.8400         38
 113.9000         32
 113.9600         30
 114.0200         29
 114.0800         38
 114.1400         36
 114.2000         34
 114.2600         34
 114.3200         52
 114.3800         33
 114.4400         46
 114.5000         39
 114.5600         47
 114.6200         53
 114.6800         43
 114.7400         52
 114.8000         44
 114.8600         45
 114.9200         48
 114.9800         46
 115.0400         57
 115.1000         45
 115.1600         53
 115.2200         50
 115.2800         62
 115.3400         54
 115.4000         64
 115.4600         65
 115.5200         67
 115.5800         55
 115.6400         57
 115.7000         56
 115.7600         62
 115.8200         65
 115.8800         73
 115.9400         77
 116.0000         71
 116.0600         90
 116.1200         76
 116.1800         74
 116.2400         73
 116.3000         86
 116.3600         86
 116.4200         97
 116.4800         91
 116.5400        120
 116.6000         93
 116.6600         94
 116.7200        115
 116.7800        110
 116.8400        103
 116.9000        106
 116.9600        120
 117.0200        101
 117.0800        135
 117.1400        117
 117.2000        108
 117.2600        121
 117.3200        134
 117.3800        139
 117.4400        136
 117.5000        137
 117.5600        166
 117.6200        151
 117.6800        201
 117.7400        171
 117.8000        165
 117.8600        196
 117.9200        222
 117.9800        252
 118.0400        233
 118.1000        228
 118.1600        257
 118.2200        294
 118.2800        331
 118.3400        388
 118.4000        484
 118.4600        551
 118.5200        766
 118.5800        978
 118.6400       1122
 118.7000       1282
 118.7600       1291
 118.8200       1231
 118.8800       1166
 118.9400       1210
 119.0000       1411
 119.0600       1672
 119.1200       2271
 119.1800       3076
 119.2400       4706
 119.3000       8071
 119.3600      16997
 119.4200      58696
 119.4800     172703
 119.5400     114658
 119.6000      40485
 119.6600      15953
 119.7200       8638
 119.7800       7696
 119.8400      11352
 119.9000      28207
 119.9600      77336
 120.0200      67386
 120.0800      26902
 120.1400      10005
 120.2000       4870
 120.2600       2946
 120.3200       2085
 120.3800       1729
 120.4400       1324
 120.5000       1138
 120.5600        976
 120.6200        825
 120.6800        705
 120.7400        666
 120.8000        592
 120.8600        549
 120.9200        465
 120.9800        442
 121.0400        388
 121.1000        383
 121.1600        366
 121.2200        360
 121.2800        333
 121.3400        301
 121.4000        248
 121.4600        262
 121.5200        233
 121.5800        241
 121.6400        227
 121.7000        247
 121.7600        230
 121.8200        231
 121.8800        195
 121.9400        212
 122.0000        198