File: data/0811A_RC_15_25.uxd
; (content of file \\Mai-b11e5c0abfd\d8\User\55373\0851539\0831\0811\0811A_RC_38_1.raw)
_FILEVERSION = 2
_SAMPLE =
_+SAMPLE =
_SITE = Taiwan
_USER = Administrator
_GONIOMETER_CODE = 20
_STAGE_CODE = 13
; Goniometer : D8 theta/2theta, stage : Unknown
_SAMPLE_CHANGER_CODE = 0
_ATTACHMENTS_CODE = 0
_GONIOMETER_RADIUS = 300
_FIXED_DIVSLIT = 0.6
_FIXED_SAMPLESLIT = 0
_FIXED_DETSLIT = 0.1
_MONOCHROMATOR = 0
; Incident beam monochromator : None
_THIN_FILM = N
_BETA_FILTER = N
_FIXED_ANTISLIT = 0.6
_ANALYZER_CODE = 0
; Received beam analyzer : None
_DATEMEASURED = "31-Aug-2021 19:42:50"
_WL_UNIT = A
_WL1 = 1.5406
_WL2 = 1.54439
_WL3 = 1.39222
_WLRATIO = 0.5
_ANODE = Cu

; Data for range 1
_DRIVE = THETA
_STEPTIME = 0.2
_STEPSIZE = 0.02
_STEPMODE = S
_START = 15
_THETA = 15
_2THETA = 38.2033
_KHI = 0
_PHI = -177
_X = 0
_Y = 0
_Z = -0.0713
_DETECTOR = 1
; Detector type : Scintillation counter
_HV = 662
_GAIN = 80
_LLD = 0.545
_ULD = 1.917
_DETECTORSLIT = out
_AUX1 = 0
_AUX2 = 0
_AUX3 = 0
_TIMESTARTED = 17
_TEMP_RATE = -1
_TEMP_DELAY = -1
_KV = 40
_MA = 40
_RANGE_WL = 1.5406
_3DPLANE = 0
_V4_COUNTERS_MASK = 1
_V4_DRIVES_MASK = 0
_V4_ENCODERS_MASK = 0
_2THETACOUNTS = 1
; THETA  Cnt1_D1
  15.0000         13
  15.0200         14
  15.0400          9
  15.0600         28
  15.0800         11
  15.1000         20
  15.1200         15
  15.1400         15
  15.1600         14
  15.1800         22
  15.2000         14
  15.2200         14
  15.2400         20
  15.2600         15
  15.2800         20
  15.3000         16
  15.3200         14
  15.3400         16
  15.3600         11
  15.3800         18
  15.4000         12
  15.4200         16
  15.4400         12
  15.4600         19
  15.4800         14
  15.5000         18
  15.5200         22
  15.5400         17
  15.5600         18
  15.5800         13
  15.6000         21
  15.6200          6
  15.6400         18
  15.6600         12
  15.6800         21
  15.7000         23
  15.7200         15
  15.7400         14
  15.7600         16
  15.7800         10
  15.8000          9
  15.8200         10
  15.8400         14
  15.8600         16
  15.8800         13
  15.9000         10
  15.9200         15
  15.9400         15
  15.9600         13
  15.9800         12
  16.0000         15
  16.0200         22
  16.0400         12
  16.0600         26
  16.0800         14
  16.1000         22
  16.1200         13
  16.1400         21
  16.1600         11
  16.1800         15
  16.2000         12
  16.2200         15
  16.2400         14
  16.2600         22
  16.2800         22
  16.3000          8
  16.3200         12
  16.3400         11
  16.3600         13
  16.3800         16
  16.4000         22
  16.4200         15
  16.4400         27
  16.4600         13
  16.4800         16
  16.5000         11
  16.5200         17
  16.5400         13
  16.5600          6
  16.5800         11
  16.6000         24
  16.6200         15
  16.6400         12
  16.6600         18
  16.6800         13
  16.7000         19
  16.7200         30
  16.7400         18
  16.7600         27
  16.7800          8
  16.8000         16
  16.8200         13
  16.8400         18
  16.8600         23
  16.8800         14
  16.9000         15
  16.9200         12
  16.9400         12
  16.9600         19
  16.9800         13
  17.0000         11
  17.0200         24
  17.0400         13
  17.0600         15
  17.0800         15
  17.1000         13
  17.1200         18
  17.1400         16
  17.1600         17
  17.1800         19
  17.2000         19
  17.2200         21
  17.2400         22
  17.2600         19
  17.2800         17
  17.3000         13
  17.3200         14
  17.3400         22
  17.3600         10
  17.3800         13
  17.4000         18
  17.4200         12
  17.4400         16
  17.4600         15
  17.4800         13
  17.5000         15
  17.5200         20
  17.5400         13
  17.5600         14
  17.5800         11
  17.6000         20
  17.6200         14
  17.6400          9
  17.6600         13
  17.6800         16
  17.7000         23
  17.7200         18
  17.7400         13
  17.7600         10
  17.7800         12
  17.8000         20
  17.8200         16
  17.8400         20
  17.8600         18
  17.8800         15
  17.9000         14
  17.9200         16
  17.9400         15
  17.9600         13
  17.9800         26
  18.0000         17
  18.0200         18
  18.0400         12
  18.0600         17
  18.0800         14
  18.1000         18
  18.1200         16
  18.1400         12
  18.1600         16
  18.1800         15
  18.2000         15
  18.2200         10
  18.2400         13
  18.2600         18
  18.2800         11
  18.3000         11
  18.3200         18
  18.3400         16
  18.3600         11
  18.3800         14
  18.4000         17
  18.4200         13
  18.4400         19
  18.4600         16
  18.4800         22
  18.5000         26
  18.5200         11
  18.5400         10
  18.5600         17
  18.5800         27
  18.6000         15
  18.6200         13
  18.6400         16
  18.6600         19
  18.6800         18
  18.7000         16
  18.7200         14
  18.7400         20
  18.7600         14
  18.7800         10
  18.8000         15
  18.8200         14
  18.8400         21
  18.8600         21
  18.8800         22
  18.9000         17
  18.9200         11
  18.9400         17
  18.9600         15
  18.9800         11
  19.0000         16
  19.0200         13
  19.0400         12
  19.0600         15
  19.0800         14
  19.1000         17
  19.1200         16
  19.1400         11
  19.1600         17
  19.1800         18
  19.2000         12
  19.2200         12
  19.2400         17
  19.2600         18
  19.2800         16
  19.3000         18
  19.3200         21
  19.3400         18
  19.3600         16
  19.3800         16
  19.4000         22
  19.4200         14
  19.4400         13
  19.4600         15
  19.4800         21
  19.5000         20
  19.5200         22
  19.5400         21
  19.5600         20
  19.5800         20
  19.6000         20
  19.6200         18
  19.6400         14
  19.6600         12
  19.6800         12
  19.7000         20
  19.7200         16
  19.7400         17
  19.7600         14
  19.7800         17
  19.8000         15
  19.8200         16
  19.8400         16
  19.8600         18
  19.8800         16
  19.9000         17
  19.9200         12
  19.9400         19
  19.9600         16
  19.9800         20
  20.0000         13
  20.0200         15
  20.0400         16
  20.0600         18
  20.0800         19
  20.1000         17
  20.1200         15
  20.1400         17
  20.1600         13
  20.1800         18
  20.2000         12
  20.2200          9
  20.2400         11
  20.2600         19
  20.2800         15
  20.3000         18
  20.3200         13
  20.3400         11
  20.3600         17
  20.3800         18
  20.4000         10
  20.4200         21
  20.4400         16
  20.4600         11
  20.4800         18
  20.5000         14
  20.5200         16
  20.5400         23
  20.5600         14
  20.5800          9
  20.6000         11
  20.6200         14
  20.6400         12
  20.6600         11
  20.6800         17
  20.7000         20
  20.7200         10
  20.7400         17
  20.7600         19
  20.7800         14
  20.8000         13
  20.8200         13
  20.8400         12
  20.8600         24
  20.8800         18
  20.9000         20
  20.9200         16
  20.9400          5
  20.9600         19
  20.9800         10
  21.0000         19
  21.0200         17
  21.0400         14
  21.0600         18
  21.0800         15
  21.1000         19
  21.1200         15
  21.1400          8
  21.1600          8
  21.1800         17
  21.2000         24
  21.2200         17
  21.2400         14
  21.2600         10
  21.2800         16
  21.3000         21
  21.3200          9
  21.3400         16
  21.3600         19
  21.3800         14
  21.4000         13
  21.4200         16
  21.4400         16
  21.4600         17
  21.4800          9
  21.5000         13
  21.5200         14
  21.5400         19
  21.5600         14
  21.5800         19
  21.6000         16
  21.6200         16
  21.6400         13
  21.6600          7
  21.6800         17
  21.7000         13
  21.7200         11
  21.7400         18
  21.7600         19
  21.7800         13
  21.8000         14
  21.8200         15
  21.8400         17
  21.8600         13
  21.8800         17
  21.9000         10
  21.9200         15
  21.9400         11
  21.9600         21
  21.9800         12
  22.0000         31
  22.0200         22
  22.0400         23
  22.0600          8
  22.0800         15
  22.1000         18
  22.1200          8
  22.1400         14
  22.1600         13
  22.1800         14
  22.2000         22
  22.2200         20
  22.2400         17
  22.2600         17
  22.2800         20
  22.3000         17
  22.3200         17
  22.3400         15
  22.3600         14
  22.3800         25
  22.4000         19
  22.4200         14
  22.4400         16
  22.4600         14
  22.4800         25
  22.5000         14
  22.5200         12
  22.5400         17
  22.5600         13
  22.5800         15
  22.6000         12
  22.6200         19
  22.6400         24
  22.6600         18
  22.6800         16
  22.7000         21
  22.7200         14
  22.7400         15
  22.7600         14
  22.7800         14
  22.8000         16
  22.8200         12
  22.8400         17
  22.8600         13
  22.8800         17
  22.9000         12
  22.9200         16
  22.9400         13
  22.9600         19
  22.9800         16
  23.0000         12