File: data/0811B_2th_all.uxd
; (content of file \\Mai-b11e5c0abfd\d8\User\55373\0851539\0831\0811\0811B_2th_1.raw)
_FILEVERSION = 2
_SAMPLE =
_+SAMPLE =
_SITE = Taiwan
_USER = Administrator
_GONIOMETER_CODE = 20
_STAGE_CODE = 13
; Goniometer : D8 theta/2theta, stage : Unknown
_SAMPLE_CHANGER_CODE = 0
_ATTACHMENTS_CODE = 0
_GONIOMETER_RADIUS = 300
_FIXED_DIVSLIT = 0.6
_FIXED_SAMPLESLIT = 0
_FIXED_DETSLIT = 0.1
_MONOCHROMATOR = 0
; Incident beam monochromator : None
_THIN_FILM = N
_BETA_FILTER = N
_FIXED_ANTISLIT = 0.6
_ANALYZER_CODE = 0
; Received beam analyzer : None
_DATEMEASURED = "31-Aug-2021 19:57:53"
_WL_UNIT = A
_WL1 = 1.5406
_WL2 = 1.54439
_WL3 = 1.39222
_WLRATIO = 0.5
_ANODE = Cu

; Data for range 1
_DRIVE = COUPLED
_STEPTIME = 0.2
_STEPSIZE = 0.02
_STEPMODE = C
_START = 34
_THETA = 14.494
_2THETA = 34
_KHI = 0
_PHI = -83.5
_X = 0
_Y = 0
_Z = 0.0073
_DETECTOR = 1
; Detector type : Scintillation counter
_HV = 662
_GAIN = 80
_LLD = 0.545
_ULD = 1.917
_DETECTORSLIT = out
_AUX1 = 0
_AUX2 = 0
_AUX3 = 0
_TIMESTARTED = 17
_TEMP_RATE = -1
_TEMP_DELAY = -1
_KV = 40
_MA = 40
_RANGE_WL = 1.5406
_3DPLANE = 0
_V4_COUNTERS_MASK = 1
_V4_DRIVES_MASK = 0
_V4_ENCODERS_MASK = 0
_2THETACOUNTS = 1
; 2THETA  Cnt1_D1
  34.0000          6
  34.0600          5
  34.1200          3
  34.1800          4
  34.2400          4
  34.3000          1
  34.3600          2
  34.4200          0
  34.4800          5
  34.5400          5
  34.6000          5
  34.6600          3
  34.7200          4
  34.7800          4
  34.8400          5
  34.9000          3
  34.9600          1
  35.0200          5
  35.0800          2
  35.1400          6
  35.2000          4
  35.2600          3
  35.3200          6
  35.3800          2
  35.4400          3
  35.5000          1
  35.5600          1
  35.6200          6
  35.6800          3
  35.7400          2
  35.8000          4
  35.8600          4
  35.9200          4
  35.9800          5
  36.0400          0
  36.1000          4
  36.1600          0
  36.2200          4
  36.2800          3
  36.3400          0
  36.4000          1
  36.4600          3
  36.5200          0
  36.5800          4
  36.6400          2
  36.7000          3
  36.7600          3
  36.8200          2
  36.8800          2
  36.9400          3
  37.0000          5
  37.0600          7
  37.1200          5
  37.1800          5
  37.2400          3
  37.3000          3
  37.3600          4
  37.4200          2
  37.4800          4
  37.5400          5
  37.6000          2
  37.6600          4
  37.7200          4
  37.7800          7
  37.8400          5
  37.9000          7
  37.9600          3
  38.0200          7
  38.0800         15
  38.1400          5
  38.2000          5
  38.2600         12
  38.3200         12
  38.3800         12
  38.4400          5
  38.5000          4
  38.5600          5
  38.6200         13
  38.6800          9
  38.7400          2
  38.8000          7
  38.8600          3
  38.9200          6
  38.9800          2
  39.0400          5
  39.1000          6
  39.1600          1
  39.2200          2
  39.2800          1
  39.3400          5
  39.4000          6
  39.4600          6
  39.5200          2
  39.5800          0
  39.6400          3
  39.7000          4
  39.7600          1
  39.8200          4
  39.8800          4
  39.9400          2
  40.0000          6
  40.0600          4
  40.1200          5
  40.1800          3
  40.2400          3
  40.3000          6
  40.3600          5
  40.4200          4
  40.4800          1
  40.5400          4
  40.6000          5
  40.6600          3
  40.7200          4
  40.7800          2
  40.8400          1
  40.9000          3
  40.9600          5
  41.0200          2
  41.0800          3
  41.1400          1
  41.2000          2
  41.2600          5
  41.3200          5
  41.3800          6
  41.4400          3
  41.5000          4
  41.5600          6
  41.6200          9
  41.6800          3
  41.7400          3
  41.8000          6
  41.8600          4
  41.9200          3
  41.9800          3
  42.0400          4
  42.1000          4
  42.1600          4
  42.2200          2
  42.2800          4
  42.3400          5
  42.4000          6
  42.4600          6
  42.5200          2
  42.5800          3
  42.6400          2
  42.7000          4
  42.7600          6
  42.8200          4
  42.8800          2
  42.9400          4
  43.0000          3
  43.0600          5
  43.1200          7
  43.1800          2
  43.2400          5
  43.3000          2
  43.3600          2
  43.4200          5
  43.4800         10
  43.5400          5
  43.6000          2
  43.6600          2
  43.7200          4
  43.7800          7
  43.8400          0
  43.9000          4
  43.9600          1
  44.0200          3
  44.0800          3
  44.1400          6
  44.2000          6
  44.2600          3
  44.3200          6
  44.3800          6
  44.4400          9
  44.5000          7
  44.5600          4
  44.6200          7
  44.6800          4
  44.7400          5
  44.8000          5
  44.8600          4
  44.9200         11
  44.9800          5
  45.0400          2
  45.1000          3
  45.1600          2
  45.2200          5
  45.2800          3
  45.3400          2
  45.4000          2
  45.4600          1
  45.5200          4
  45.5800          6
  45.6400          3
  45.7000          3
  45.7600          4
  45.8200          1
  45.8800          0
  45.9400          1
  46.0000          3
  46.0600          4
  46.1200          1
  46.1800          1
  46.2400          3
  46.3000          6
  46.3600          5
  46.4200          3
  46.4800          3
  46.5400          4
  46.6000          4
  46.6600          0
  46.7200          2
  46.7800          1
  46.8400          3
  46.9000          3
  46.9600          2
  47.0200          4
  47.0800          5
  47.1400          2
  47.2000          4
  47.2600          2
  47.3200          4
  47.3800          5
  47.4400          1
  47.5000          4
  47.5600          3
  47.6200          2
  47.6800          2
  47.7400          2
  47.8000          4
  47.8600          1
  47.9200          2
  47.9800          2
  48.0400          3
  48.1000          3
  48.1600          3
  48.2200          2
  48.2800          3
  48.3400          3
  48.4000          4
  48.4600          0
  48.5200          0
  48.5800          4
  48.6400          3
  48.7000          0
  48.7600          3
  48.8200          2
  48.8800          3
  48.9400          4
  49.0000          3
  49.0600          4
  49.1200          2
  49.1800          1
  49.2400          0
  49.3000          2
  49.3600          1
  49.4200          5
  49.4800          4
  49.5400          2
  49.6000          7
  49.6600          3
  49.7200          4
  49.7800          5
  49.8400          3
  49.9000          1
  49.9600          1
  50.0200          1
  50.0800          1
  50.1400          4
  50.2000          3
  50.2600          2
  50.3200          2
  50.3800          0
  50.4400          4
  50.5000          4
  50.5600          1
  50.6200          3
  50.6800          2
  50.7400          2
  50.8000          1
  50.8600          4
  50.9200          2
  50.9800          1
  51.0400          4
  51.1000          2
  51.1600          4
  51.2200          2
  51.2800          1
  51.3400          1
  51.4000          6
  51.4600          4
  51.5200          2
  51.5800          1
  51.6400          4
  51.7000          2
  51.7600          2
  51.8200          2
  51.8800          3
  51.9400          2
  52.0000          1
  52.0600          1
  52.1200          3
  52.1800          1
  52.2400          2
  52.3000          4
  52.3600          2
  52.4200          1
  52.4800          3
  52.5400          2
  52.6000          1
  52.6600          2
  52.7200          0
  52.7800          3
  52.8400          3
  52.9000          3
  52.9600          4
  53.0200          2
  53.0800          0
  53.1400          3
  53.2000          0
  53.2600          4
  53.3200          2
  53.3800          3
  53.4400          4
  53.5000          4
  53.5600          2
  53.6200          2
  53.6800          4
  53.7400          2
  53.8000          5
  53.8600          1
  53.9200          4
  53.9800          1
  54.0400          1
  54.1000          0
  54.1600          2
  54.2200          2
  54.2800          4
  54.3400          3
  54.4000          2
  54.4600          6
  54.5200          3
  54.5800          2
  54.6400          5
  54.7000          1
  54.7600          1
  54.8200          2
  54.8800          2
  54.9400          0
  55.0000          3
  55.0600          1
  55.1200          2
  55.1800          2
  55.2400          2
  55.3000          0
  55.3600          2
  55.4200          4
  55.4800          3
  55.5400          6
  55.6000          4
  55.6600          3
  55.7200          0
  55.7800          3
  55.8400          1
  55.9000          3
  55.9600          2
  56.0200          1
  56.0800          3
  56.1400          3
  56.2000          0
  56.2600          1
  56.3200          2
  56.3800          1
  56.4400          4
  56.5000          3
  56.5600          3
  56.6200          1
  56.6800          0
  56.7400          0
  56.8000          0
  56.8600          3
  56.9200          8
  56.9800          1
  57.0400          1
  57.1000          2
  57.1600          2
  57.2200          4
  57.2800          1
  57.3400          0
  57.4000          4
  57.4600          2
  57.5200          3
  57.5800          3
  57.6400          1
  57.7000          0
  57.7600          0
  57.8200          1
  57.8800          3
  57.9400          2
  58.0000          1
  58.0600          0
  58.1200          1
  58.1800          1
  58.2400          3
  58.3000          4
  58.3600          1
  58.4200          1
  58.4800          5
  58.5400          2
  58.6000          5
  58.6600          0
  58.7200          1
  58.7800          0
  58.8400          2
  58.9000          3
  58.9600          4
  59.0200          4
  59.0800          0
  59.1400          4
  59.2000          1
  59.2600          5
  59.3200          1
  59.3800          1
  59.4400          1
  59.5000          1
  59.5600          2
  59.6200          2
  59.6800          1
  59.7400          2
  59.8000          2
  59.8600          3
  59.9200          2
  59.9800          3
  60.0400          3
  60.1000          4
  60.1600          2
  60.2200          4
  60.2800          1
  60.3400          2
  60.4000          2
  60.4600          4
  60.5200          1
  60.5800          0
  60.6400          2
  60.7000          4
  60.7600          4
  60.8200          1
  60.8800          1
  60.9400          3
  61.0000          7
  61.0600          1
  61.1200          1
  61.1800          5
  61.2400          3
  61.3000          2
  61.3600          2
  61.4200          2
  61.4800          2
  61.5400          1
  61.6000          3
  61.6600          1
  61.7200          2
  61.7800          2
  61.8400          1
  61.9000          1
  61.9600          2
  62.0200          4
  62.0800          1
  62.1400          4
  62.2000          5
  62.2600          3
  62.3200          1
  62.3800          1
  62.4400          1
  62.5000          2
  62.5600          1
  62.6200          4
  62.6800          1
  62.7400          4
  62.8000          2
  62.8600          5
  62.9200          4
  62.9800          1
  63.0400          2
  63.1000          4
  63.1600          2
  63.2200          2
  63.2800          2
  63.3400          2
  63.4000          2
  63.4600          5
  63.5200          3
  63.5800          2
  63.6400          2
  63.7000          2
  63.7600          4
  63.8200          5
  63.8800          2
  63.9400          7
  64.0000          3
  64.0600          2
  64.1200          3
  64.1800          2
  64.2400          0
  64.3000          3
  64.3600          2
  64.4200          0
  64.4800          1
  64.5400          2
  64.6000          2
  64.6600          4
  64.7200          4
  64.7800          2
  64.8400          3
  64.9000          5
  64.9600          1
  65.0200          1
  65.0800          5
  65.1400          5
  65.2000          4
  65.2600          5
  65.3200          2
  65.3800          3
  65.4400          0
  65.5000          2
  65.5600          0
  65.6200          1
  65.6800          3
  65.7400          3
  65.8000          3
  65.8600          3
  65.9200          1
  65.9800          3
  66.0400          3
  66.1000          3
  66.1600          1
  66.2200          1
  66.2800          2
  66.3400          1
  66.4000          4
  66.4600          4
  66.5200          5
  66.5800          1
  66.6400          2
  66.7000          2
  66.7600          2
  66.8200          2
  66.8800          2
  66.9400          3
  67.0000          2
  67.0600          2
  67.1200          2
  67.1800          3
  67.2400          4
  67.3000          2
  67.3600          0
  67.4200          0
  67.4800          1
  67.5400          4
  67.6000          3
  67.6600          3
  67.7200          2
  67.7800          3
  67.8400          0
  67.9000          2
  67.9600          0
  68.0200          3
  68.0800          3
  68.1400          4
  68.2000          3
  68.2600          1
  68.3200          1
  68.3800          2
  68.4400          1
  68.5000          3
  68.5600          3
  68.6200          2
  68.6800          3
  68.7400          1
  68.8000          1
  68.8600          4
  68.9200          3
  68.9800          2
  69.0400          1
  69.1000          2
  69.1600          1
  69.2200          2
  69.2800          4
  69.3400          4
  69.4000          0
  69.4600          0
  69.5200          2
  69.5800          4
  69.6400          0
  69.7000          1
  69.7600          2
  69.8200          2
  69.8800          0
  69.9400          2
  70.0000          6
  70.0600          1
  70.1200          1
  70.1800          0
  70.2400          2
  70.3000          0
  70.3600          1
  70.4200          3
  70.4800          6
  70.5400          4
  70.6000          1
  70.6600          3
  70.7200          3
  70.7800          2
  70.8400          3
  70.9000          3
  70.9600          1
  71.0200          7
  71.0800          2
  71.1400          0
  71.2000          3
  71.2600          3
  71.3200          1
  71.3800          1
  71.4400          0
  71.5000          3
  71.5600          3
  71.6200          1
  71.6800          3
  71.7400          1
  71.8000          1
  71.8600          1
  71.9200          2
  71.9800          3
  72.0400          1
  72.1000          0
  72.1600          3
  72.2200          5
  72.2800          0
  72.3400          3
  72.4000          4
  72.4600          5
  72.5200          2
  72.5800          3
  72.6400          3
  72.7000          0
  72.7600          4
  72.8200          3
  72.8800          1
  72.9400          1
  73.0000          6
  73.0600          2
  73.1200          0
  73.1800          3
  73.2400          4
  73.3000          2
  73.3600          2
  73.4200          0
  73.4800          3
  73.5400          0
  73.6000          1
  73.6600          3
  73.7200          1
  73.7800          2
  73.8400          1
  73.9000          2
  73.9600          1
  74.0200          0
  74.0800          2
  74.1400          3
  74.2000          2
  74.2600          1
  74.3200          4
  74.3800          1
  74.4400          0
  74.5000          2
  74.5600          2
  74.6200          4
  74.6800          5
  74.7400          3
  74.8000          1
  74.8600          4
  74.9200          2
  74.9800          2
  75.0400          2
  75.1000          2
  75.1600          0
  75.2200          2
  75.2800          1
  75.3400          1
  75.4000          2
  75.4600          3
  75.5200          4
  75.5800          0
  75.6400          2
  75.7000          2
  75.7600          2
  75.8200          1
  75.8800          2
  75.9400          2
  76.0000          1
  76.0600          1
  76.1200          2
  76.1800          0
  76.2400          2
  76.3000          3
  76.3600          5
  76.4200          1
  76.4800          1
  76.5400          4
  76.6000          1
  76.6600          3
  76.7200          0
  76.7800          2
  76.8400          1
  76.9000          5
  76.9600          0
  77.0200          6
  77.0800          3
  77.1400          1
  77.2000          5
  77.2600          3
  77.3200          2
  77.3800          0
  77.4400          5
  77.5000          2
  77.5600          1
  77.6200          3
  77.6800          5
  77.7400          2
  77.8000          5
  77.8600          3
  77.9200          2
  77.9800          3
  78.0400          1
  78.1000          5
  78.1600          0
  78.2200          0
  78.2800          1
  78.3400          4
  78.4000          2
  78.4600          2
  78.5200          1
  78.5800          4
  78.6400          1
  78.7000          3
  78.7600          2
  78.8200          1
  78.8800          0
  78.9400          3
  79.0000          3
  79.0600          2
  79.1200          4
  79.1800          2
  79.2400          2
  79.3000          3
  79.3600          0
  79.4200          0
  79.4800          1
  79.5400          2
  79.6000          6
  79.6600          1
  79.7200          3
  79.7800          1
  79.8400          0
  79.9000          3
  79.9600          5
  80.0200          4
  80.0800          1
  80.1400          4
  80.2000          1
  80.2600          2
  80.3200          0
  80.3800          2
  80.4400          4
  80.5000          3
  80.5600          2
  80.6200          1
  80.6800          3
  80.7400          1
  80.8000          2
  80.8600          1
  80.9200          1
  80.9800          5
  81.0400          2
  81.1000          1
  81.1600          2
  81.2200          3
  81.2800          3
  81.3400          0
  81.4000          2
  81.4600          2
  81.5200          1
  81.5800          1
  81.6400          0
  81.7000          2
  81.7600          3
  81.8200          3
  81.8800          2
  81.9400          2
  82.0000          2
  82.0600          1
  82.1200          3
  82.1800          4
  82.2400          3
  82.3000          1
  82.3600          4
  82.4200          0
  82.4800          0
  82.5400          1
  82.6000          0
  82.6600          4
  82.7200          0
  82.7800          2
  82.8400          5
  82.9000          2
  82.9600          1
  83.0200          1
  83.0800          5
  83.1400          2
  83.2000          4
  83.2600          0
  83.3200          1
  83.3800          5
  83.4400          2
  83.5000          2
  83.5600          1
  83.6200          2
  83.6800          2
  83.7400          0
  83.8000          0
  83.8600          1
  83.9200          3
  83.9800          2
  84.0400          2
  84.1000          4
  84.1600          2
  84.2200          1
  84.2800          1
  84.3400          1
  84.4000          2
  84.4600          3
  84.5200          2
  84.5800          2
  84.6400          2
  84.7000          4
  84.7600          3
  84.8200          1
  84.8800          0
  84.9400          5
  85.0000          4
  85.0600          1
  85.1200          3
  85.1800          1
  85.2400          1
  85.3000          2
  85.3600          1
  85.4200          2
  85.4800          5
  85.5400          0
  85.6000          3
  85.6600          1
  85.7200          1
  85.7800          1
  85.8400          1
  85.9000          3
  85.9600          2
  86.0200          0
  86.0800          3
  86.1400          1
  86.2000          3
  86.2600          0
  86.3200          3
  86.3800          2
  86.4400          3
  86.5000          2
  86.5600          1
  86.6200          3
  86.6800          2
  86.7400          1
  86.8000          2
  86.8600          0
  86.9200          3
  86.9800          4
  87.0400          1
  87.1000          0
  87.1600          1
  87.2200          1
  87.2800          3
  87.3400          2
  87.4000          2
  87.4600          1
  87.5200          3
  87.5800          4
  87.6400          2
  87.7000          2
  87.7600          4
  87.8200          1
  87.8800          2
  87.9400          2
  88.0000          1
  88.0600          2
  88.1200          0
  88.1800          1
  88.2400          3
  88.3000          0
  88.3600          2
  88.4200          0
  88.4800          2
  88.5400          2
  88.6000          2
  88.6600          3
  88.7200          0
  88.7800          1
  88.8400          1
  88.9000          2
  88.9600          7
  89.0200          0
  89.0800          3
  89.1400          1
  89.2000          2
  89.2600          1
  89.3200          1
  89.3800          3
  89.4400          1
  89.5000          1
  89.5600          1
  89.6200          1
  89.6800          4
  89.7400          2
  89.8000          3
  89.8600          2
  89.9200          0
  89.9800          2
  90.0400          2
  90.1000          2
  90.1600          3
  90.2200          3
  90.2800          2
  90.3400          0
  90.4000          3
  90.4600          2
  90.5200          2
  90.5800          1
  90.6400          3
  90.7000          3
  90.7600          2
  90.8200          2
  90.8800          3
  90.9400          3
  91.0000          0
  91.0600          1
  91.1200          0
  91.1800          0
  91.2400          3
  91.3000          0
  91.3600          1
  91.4200          5
  91.4800          2
  91.5400          3
  91.6000          3
  91.6600          2
  91.7200          3
  91.7800          4
  91.8400          6
  91.9000          2
  91.9600          5
  92.0200          5
  92.0800          2
  92.1400          4
  92.2000          2
  92.2600          4
  92.3200          1
  92.3800          1
  92.4400          3
  92.5000          2
  92.5600          0
  92.6200          0
  92.6800          2
  92.7400          0
  92.8000          0
  92.8600          2
  92.9200          1
  92.9800          2
  93.0400          4
  93.1000          5
  93.1600          3
  93.2200          0
  93.2800          2
  93.3400          1
  93.4000          2
  93.4600          2
  93.5200          3
  93.5800          2
  93.6400          3
  93.7000          1
  93.7600          1
  93.8200          0
  93.8800          1
  93.9400          3
  94.0000          2
  94.0600          1
  94.1200          2
  94.1800          2
  94.2400          0
  94.3000          1
  94.3600          4
  94.4200          3
  94.4800          1
  94.5400          1
  94.6000          2
  94.6600          2
  94.7200          2
  94.7800          1
  94.8400          1
  94.9000          1
  94.9600          3
  95.0200          2
  95.0800          2
  95.1400          1
  95.2000          1
  95.2600          4
  95.3200          2
  95.3800          1
  95.4400          3
  95.5000          2
  95.5600          2
  95.6200          2
  95.6800          4
  95.7400          2
  95.8000          3
  95.8600          2
  95.9200          2
  95.9800          0
  96.0400          0
  96.1000          1
  96.1600          0
  96.2200          2
  96.2800          1
  96.3400          4
  96.4000          3
  96.4600          2
  96.5200          2
  96.5800          3
  96.6400          3
  96.7000          3
  96.7600          1
  96.8200          2
  96.8800          2
  96.9400          1
  97.0000          3
  97.0600          1
  97.1200          3
  97.1800          2
  97.2400          3
  97.3000          3
  97.3600          1
  97.4200          2
  97.4800          0
  97.5400          4
  97.6000          2
  97.6600          2
  97.7200          0
  97.7800          1
  97.8400          5
  97.9000          2
  97.9600          2
  98.0200          3
  98.0800          1
  98.1400          2
  98.2000          0
  98.2600          2
  98.3200          2
  98.3800          0
  98.4400          3
  98.5000          2
  98.5600          0
  98.6200          4
  98.6800          2
  98.7400          3
  98.8000          2
  98.8600          0
  98.9200          1
  98.9800          2
  99.0400          2
  99.1000          2
  99.1600          5
  99.2200          2
  99.2800          0
  99.3400          1
  99.4000          1
  99.4600          4
  99.5200          0
  99.5800          2
  99.6400          2
  99.7000          2
  99.7600          4
  99.8200          2
  99.8800          1
  99.9400          2
 100.0000          2
 100.0600          0
 100.1200          3
 100.1800          2
 100.2400          2
 100.3000          1
 100.3600          0
 100.4200          4
 100.4800          3
 100.5400          5
 100.6000          1
 100.6600          1
 100.7200          2
 100.7800          4
 100.8400          7
 100.9000          1
 100.9600          1
 101.0200          0
 101.0800          3
 101.1400          4
 101.2000          1
 101.2600          2
 101.3200          3
 101.3800          1
 101.4400          1
 101.5000          5
 101.5600          0
 101.6200          1
 101.6800          4
 101.7400          3
 101.8000          3
 101.8600          2
 101.9200          3
 101.9800          1
 102.0400          2
 102.1000          0
 102.1600          1
 102.2200          3
 102.2800          1
 102.3400          2
 102.4000          1
 102.4600          4
 102.5200          3
 102.5800          6
 102.6400          3
 102.7000          4
 102.7600          0
 102.8200          3
 102.8800          3
 102.9400          2
 103.0000          1
 103.0600          3
 103.1200          4
 103.1800          1
 103.2400          4
 103.3000          2
 103.3600          0
 103.4200          2
 103.4800          0
 103.5400          2
 103.6000          4
 103.6600          1
 103.7200          1
 103.7800          4
 103.8400          0
 103.9000          1
 103.9600          2
 104.0200          1
 104.0800          2
 104.1400          1
 104.2000          2
 104.2600          1
 104.3200          1
 104.3800          1
 104.4400          3
 104.5000          1
 104.5600          2
 104.6200          1
 104.6800          1
 104.7400          1
 104.8000          1
 104.8600          1
 104.9200          2
 104.9800          1
 105.0400          0
 105.1000          4
 105.1600          3
 105.2200          1
 105.2800          3
 105.3400          2
 105.4000          4
 105.4600          0
 105.5200          1
 105.5800          0
 105.6400          3
 105.7000          1
 105.7600          0
 105.8200          2
 105.8800          2
 105.9400          1
 106.0000          2
 106.0600          2
 106.1200          5
 106.1800          2
 106.2400          6
 106.3000          4
 106.3600          1
 106.4200          1
 106.4800          2
 106.5400          3
 106.6000          3
 106.6600          2
 106.7200          0
 106.7800          1
 106.8400          1
 106.9000          0
 106.9600          1
 107.0200          1
 107.0800          4
 107.1400          2
 107.2000          4
 107.2600          2
 107.3200          1
 107.3800          2
 107.4400          3
 107.5000          2
 107.5600          4
 107.6200          4
 107.6800          2
 107.7400          4
 107.8000          2
 107.8600          5
 107.9200          2
 107.9800          2
 108.0400          3
 108.1000          3
 108.1600          1
 108.2200          2
 108.2800          1
 108.3400          3
 108.4000          5
 108.4600          1
 108.5200          0
 108.5800          5
 108.6400          2
 108.7000          4
 108.7600          3
 108.8200          6
 108.8800          1
 108.9400          3
 109.0000          3
 109.0600          1
 109.1200          2
 109.1800          5
 109.2400          4
 109.3000          1
 109.3600          1
 109.4200          0
 109.4800          4
 109.5400          3
 109.6000          3
 109.6600          5
 109.7200          2
 109.7800          2
 109.8400          2
 109.9000          5
 109.9600          3
 110.0200          1
 110.0800          6
 110.1400          0
 110.2000          1
 110.2600          3
 110.3200          2
 110.3800          1
 110.4400          0
 110.5000          3
 110.5600          2
 110.6200          7
 110.6800          3
 110.7400          3
 110.8000          1
 110.8600          3
 110.9200          5
 110.9800          4
 111.0400          4
 111.1000          2
 111.1600          3
 111.2200          3
 111.2800          3
 111.3400          4
 111.4000          7
 111.4600          3
 111.5200          0
 111.5800          3
 111.6400          4
 111.7000          4
 111.7600          3
 111.8200          3
 111.8800          0
 111.9400          6
 112.0000          5
 112.0600          0
 112.1200          3
 112.1800          1
 112.2400          2
 112.3000          3
 112.3600          3
 112.4200          2
 112.4800          1
 112.5400          4
 112.6000          5
 112.6600          3
 112.7200          2
 112.7800          2
 112.8400          2
 112.9000          3
 112.9600          1
 113.0200          8
 113.0800          5
 113.1400          9
 113.2000          4
 113.2600          6
 113.3200          6
 113.3800          3
 113.4400          7
 113.5000          5
 113.5600          5
 113.6200          9
 113.6800          8
 113.7400         11
 113.8000          8
 113.8600         14
 113.9200         10
 113.9800         11
 114.0400          7
 114.1000          5
 114.1600         16
 114.2200          8
 114.2800          9
 114.3400          8
 114.4000         10
 114.4600          8
 114.5200         12
 114.5800         14
 114.6400         14
 114.7000         14
 114.7600         12
 114.8200         16
 114.8800          6
 114.9400          9
 115.0000          6
 115.0600          9
 115.1200         12
 115.1800         11
 115.2400         16
 115.3000         10
 115.3600         10
 115.4200          9
 115.4800         14
 115.5400         25
 115.6000         17
 115.6600         16
 115.7200         15
 115.7800         26
 115.8400         14
 115.9000         15
 115.9600         19
 116.0200         18
 116.0800         19
 116.1400         23
 116.2000         25
 116.2600         17
 116.3200         13
 116.3800         20
 116.4400         23
 116.5000         23
 116.5600         28
 116.6200         25
 116.6800         23
 116.7400         20
 116.8000         23
 116.8600         25
 116.9200         42
 116.9800         25
 117.0400         28
 117.1000         29
 117.1600         32
 117.2200         30
 117.2800         31
 117.3400         35
 117.4000         25
 117.4600         42
 117.5200         38
 117.5800         41
 117.6400         42
 117.7000         48
 117.7600         55
 117.8200         70
 117.8800         46
 117.9400         47
 118.0000         72
 118.0600         79
 118.1200         78
 118.1800         70
 118.2400         93
 118.3000         97
 118.3600        127
 118.4200        175
 118.4800        210
 118.5400        274
 118.6000        306
 118.6600        300
 118.7200        325
 118.7800        305
 118.8400        283
 118.9000        339
 118.9600        397
 119.0200        466
 119.0800        656
 119.1400        948
 119.2000       1554
 119.2600       2948
 119.3200       7998
 119.3800      28374
 119.4400      38659
 119.5000      17976
 119.5600       6478
 119.6200       2904
 119.6800       1885
 119.7400       2260
 119.8000       4731
 119.8600      14240
 119.9200      20867
 119.9800      11545
 120.0400       4211
 120.1000       1886
 120.1600        982
 120.2200        666
 120.2800        500
 120.3400        360
 120.4000        329
 120.4600        296
 120.5200        236
 120.5800        203
 120.6400        176
 120.7000        158
 120.7600        139
 120.8200        131
 120.8800        132
 120.9400        112
 121.0000        115
 121.0600         83
 121.1200        103
 121.1800         89
 121.2400         74
 121.3000         98
 121.3600         76
 121.4200         79
 121.4800         71
 121.5400         61
 121.6000         74
 121.6600         67
 121.7200         49
 121.7800         63
 121.8400         60
 121.9000         57
 121.9600         77
 122.0000         70