File: data/0811A_2th_all.uxd
; (content of file \\Mai-b11e5c0abfd\d8\User\55373\0851539\0831\0811\0811A_2th_1.raw)
_FILEVERSION = 2
_SAMPLE =
_+SAMPLE =
_SITE = Taiwan
_USER = Administrator
_GONIOMETER_CODE = 20
_STAGE_CODE = 13
; Goniometer : D8 theta/2theta, stage : Unknown
_SAMPLE_CHANGER_CODE = 0
_ATTACHMENTS_CODE = 0
_GONIOMETER_RADIUS = 300
_FIXED_DIVSLIT = 0.6
_FIXED_SAMPLESLIT = 0
_FIXED_DETSLIT = 0.1
_MONOCHROMATOR = 0
; Incident beam monochromator : None
_THIN_FILM = N
_BETA_FILTER = N
_FIXED_ANTISLIT = 0.6
_ANALYZER_CODE = 0
; Received beam analyzer : None
_DATEMEASURED = "31-Aug-2021 19:26:54"
_WL_UNIT = A
_WL1 = 1.5406
_WL2 = 1.54439
_WL3 = 1.39222
_WLRATIO = 0.5
_ANODE = Cu

; Data for range 1
_DRIVE = COUPLED
_STEPTIME = 0.2
_STEPSIZE = 0.02
_STEPMODE = C
_START = 34
_THETA = 17
_2THETA = 34
_KHI = 0
_PHI = -177
_X = 0
_Y = 0
_Z = -0.0713
_DETECTOR = 1
; Detector type : Scintillation counter
_HV = 662
_GAIN = 80
_LLD = 0.545
_ULD = 1.917
_DETECTORSLIT = out
_AUX1 = 0
_AUX2 = 0
_AUX3 = 0
_TIMESTARTED = 16
_TEMP_RATE = -1
_TEMP_DELAY = -1
_KV = 40
_MA = 40
_RANGE_WL = 1.5406
_3DPLANE = 0
_V4_COUNTERS_MASK = 1
_V4_DRIVES_MASK = 0
_V4_ENCODERS_MASK = 0
_2THETACOUNTS = 1
; 2THETA  Cnt1_D1
  34.0000          4
  34.0600          3
  34.1200          5
  34.1800          5
  34.2400          3
  34.3000          4
  34.3600          3
  34.4200          4
  34.4800          5
  34.5400          4
  34.6000          3
  34.6600          4
  34.7200          2
  34.7800          2
  34.8400          2
  34.9000          1
  34.9600          2
  35.0200          2
  35.0800          2
  35.1400          5
  35.2000          4
  35.2600          2
  35.3200          3
  35.3800          2
  35.4400          2
  35.5000          5
  35.5600          3
  35.6200          0
  35.6800          0
  35.7400          1
  35.8000          2
  35.8600          4
  35.9200          1
  35.9800          1
  36.0400          2
  36.1000          2
  36.1600          6
  36.2200          5
  36.2800          5
  36.3400          4
  36.4000          2
  36.4600          2
  36.5200          3
  36.5800          9
  36.6400          2
  36.7000          0
  36.7600          1
  36.8200          1
  36.8800          4
  36.9400          2
  37.0000          2
  37.0600          1
  37.1200          0
  37.1800          1
  37.2400          5
  37.3000          3
  37.3600          5
  37.4200          5
  37.4800          2
  37.5400          2
  37.6000          3
  37.6600          2
  37.7200          8
  37.7800          2
  37.8400          6
  37.9000          5
  37.9600          9
  38.0200         16
  38.0800         15
  38.1400         18
  38.2000         23
  38.2600         15
  38.3200         12
  38.3800          7
  38.4400         10
  38.5000         11
  38.5600          9
  38.6200          5
  38.6800          1
  38.7400          3
  38.8000          2
  38.8600          3
  38.9200          3
  38.9800          4
  39.0400          3
  39.1000          4
  39.1600          8
  39.2200          3
  39.2800          1
  39.3400          4
  39.4000          1
  39.4600          5
  39.5200          7
  39.5800          2
  39.6400          4
  39.7000          3
  39.7600          2
  39.8200          4
  39.8800          4
  39.9400          2
  40.0000          2
  40.0600          1
  40.1200          2
  40.1800          4
  40.2400          5
  40.3000          6
  40.3600          3
  40.4200          2
  40.4800          4
  40.5400          3
  40.6000          5
  40.6600          3
  40.7200          4
  40.7800          2
  40.8400          1
  40.9000          2
  40.9600          3
  41.0200          1
  41.0800          3
  41.1400          1
  41.2000          5
  41.2600          5
  41.3200          5
  41.3800          3
  41.4400          2
  41.5000          9
  41.5600         11
  41.6200          4
  41.6800          3
  41.7400          3
  41.8000          4
  41.8600          5
  41.9200          6
  41.9800          5
  42.0400          5
  42.1000          7
  42.1600          2
  42.2200          1
  42.2800          4
  42.3400          2
  42.4000          6
  42.4600          4
  42.5200          4
  42.5800          2
  42.6400          5
  42.7000          2
  42.7600          1
  42.8200          5
  42.8800          3
  42.9400          2
  43.0000          4
  43.0600          5
  43.1200          7
  43.1800          4
  43.2400          4
  43.3000          4
  43.3600          3
  43.4200          0
  43.4800          3
  43.5400          2
  43.6000          4
  43.6600          2
  43.7200          2
  43.7800          1
  43.8400          5
  43.9000          3
  43.9600          4
  44.0200          4
  44.0800          5
  44.1400         10
  44.2000         11
  44.2600          7
  44.3200          9
  44.3800         21
  44.4400          5
  44.5000          3
  44.5600          9
  44.6200          1
  44.6800          5
  44.7400          3
  44.8000          2
  44.8600          3
  44.9200          2
  44.9800          2
  45.0400          4
  45.1000          3
  45.1600          4
  45.2200          5
  45.2800          6
  45.3400          2
  45.4000          6
  45.4600          3
  45.5200          1
  45.5800          2
  45.6400          4
  45.7000          2
  45.7600          3
  45.8200          2
  45.8800          2
  45.9400          1
  46.0000          3
  46.0600          4
  46.1200          1
  46.1800          0
  46.2400          1
  46.3000          5
  46.3600          2
  46.4200          1
  46.4800          4
  46.5400          1
  46.6000          4
  46.6600          1
  46.7200          0
  46.7800          8
  46.8400          2
  46.9000          4
  46.9600          4
  47.0200          1
  47.0800          1
  47.1400          2
  47.2000          6
  47.2600          1
  47.3200          3
  47.3800          1
  47.4400          4
  47.5000          2
  47.5600          1
  47.6200          7
  47.6800          5
  47.7400          2
  47.8000          2
  47.8600          1
  47.9200          2
  47.9800          2
  48.0400          4
  48.1000          3
  48.1600          0
  48.2200          2
  48.2800          3
  48.3400          3
  48.4000          3
  48.4600          3
  48.5200          3
  48.5800          3
  48.6400          2
  48.7000          1
  48.7600          4
  48.8200          0
  48.8800          1
  48.9400          2
  49.0000          4
  49.0600          4
  49.1200          0
  49.1800          3
  49.2400          1
  49.3000          4
  49.3600          1
  49.4200          4
  49.4800          3
  49.5400          2
  49.6000          3
  49.6600          1
  49.7200          2
  49.7800          1
  49.8400          3
  49.9000          5
  49.9600          3
  50.0200          3
  50.0800          1
  50.1400          4
  50.2000          2
  50.2600          3
  50.3200          3
  50.3800          0
  50.4400          1
  50.5000          5
  50.5600          3
  50.6200          2
  50.6800          3
  50.7400          2
  50.8000          1
  50.8600          2
  50.9200          3
  50.9800          4
  51.0400          1
  51.1000          0
  51.1600          1
  51.2200          2
  51.2800          3
  51.3400          4
  51.4000          0
  51.4600          2
  51.5200          3
  51.5800          2
  51.6400          1
  51.7000          1
  51.7600          2
  51.8200          1
  51.8800          2
  51.9400          2
  52.0000          3
  52.0600          3
  52.1200          1
  52.1800          2
  52.2400          2
  52.3000          5
  52.3600          4
  52.4200          1
  52.4800          0
  52.5400          2
  52.6000          2
  52.6600          0
  52.7200          7
  52.7800          4
  52.8400          2
  52.9000          4
  52.9600          4
  53.0200          3
  53.0800          9
  53.1400          0
  53.2000          4
  53.2600          0
  53.3200          4
  53.3800          3
  53.4400          2
  53.5000          0
  53.5600          3
  53.6200          2
  53.6800          2
  53.7400          3
  53.8000          4
  53.8600          3
  53.9200          0
  53.9800          1
  54.0400          2
  54.1000          2
  54.1600          2
  54.2200          3
  54.2800          2
  54.3400          3
  54.4000          2
  54.4600          2
  54.5200          4
  54.5800          1
  54.6400          2
  54.7000          4
  54.7600          6
  54.8200          6
  54.8800          4
  54.9400          0
  55.0000          2
  55.0600          3
  55.1200          7
  55.1800          3
  55.2400          2
  55.3000          3
  55.3600          2
  55.4200          0
  55.4800          2
  55.5400          3
  55.6000          5
  55.6600          1
  55.7200          2
  55.7800          3
  55.8400          2
  55.9000          2
  55.9600          4
  56.0200          3
  56.0800          2
  56.1400          3
  56.2000          2
  56.2600          3
  56.3200          5
  56.3800          0
  56.4400          2
  56.5000          4
  56.5600          2
  56.6200          5
  56.6800          3
  56.7400          2
  56.8000          1
  56.8600          6
  56.9200          3
  56.9800          3
  57.0400          3
  57.1000          4
  57.1600          3
  57.2200          3
  57.2800          2
  57.3400          3
  57.4000          2
  57.4600          2
  57.5200          0
  57.5800          1
  57.6400          3
  57.7000          1
  57.7600          1
  57.8200          3
  57.8800          2
  57.9400          1
  58.0000          3
  58.0600          2
  58.1200          3
  58.1800          2
  58.2400          1
  58.3000          2
  58.3600          3
  58.4200          2
  58.4800          7
  58.5400          0
  58.6000          3
  58.6600          5
  58.7200          2
  58.7800          2
  58.8400          2
  58.9000          2
  58.9600          3
  59.0200          2
  59.0800          3
  59.1400          3
  59.2000          4
  59.2600          2
  59.3200          1
  59.3800          2
  59.4400          3
  59.5000          1
  59.5600          2
  59.6200          2
  59.6800          2
  59.7400          1
  59.8000          4
  59.8600          0
  59.9200          1
  59.9800          1
  60.0400          0
  60.1000          0
  60.1600          1
  60.2200          3
  60.2800          1
  60.3400          1
  60.4000          2
  60.4600          4
  60.5200          2
  60.5800          2
  60.6400          1
  60.7000          2
  60.7600          2
  60.8200          3
  60.8800          0
  60.9400          2
  61.0000          0
  61.0600          2
  61.1200          5
  61.1800          3
  61.2400          2
  61.3000          1
  61.3600          3
  61.4200          7
  61.4800          1
  61.5400          5
  61.6000          2
  61.6600          3
  61.7200          0
  61.7800          0
  61.8400          4
  61.9000          2
  61.9600          2
  62.0200          2
  62.0800          2
  62.1400          3
  62.2000          3
  62.2600          2
  62.3200          1
  62.3800          3
  62.4400          0
  62.5000          1
  62.5600          2
  62.6200          5
  62.6800          1
  62.7400          7
  62.8000          2
  62.8600          1
  62.9200          4
  62.9800          0
  63.0400          2
  63.1000          2
  63.1600          1
  63.2200          2
  63.2800          0
  63.3400          5
  63.4000          6
  63.4600          7
  63.5200          2
  63.5800          2
  63.6400          0
  63.7000          2
  63.7600          1
  63.8200          4
  63.8800          2
  63.9400          4
  64.0000          1
  64.0600          6
  64.1200          1
  64.1800          2
  64.2400          8
  64.3000          7
  64.3600         13
  64.4200          6
  64.4800          9
  64.5400          6
  64.6000          1
  64.6600          7
  64.7200          2
  64.7800          6
  64.8400          3
  64.9000          1
  64.9600          3
  65.0200          1
  65.0800          3
  65.1400          3
  65.2000          2
  65.2600          3
  65.3200          3
  65.3800          2
  65.4400          5
  65.5000          1
  65.5600          0
  65.6200          3
  65.6800          1
  65.7400          3
  65.8000          2
  65.8600          3
  65.9200          3
  65.9800          3
  66.0400          5
  66.1000          3
  66.1600          0
  66.2200          2
  66.2800          2
  66.3400          2
  66.4000          2
  66.4600          1
  66.5200          2
  66.5800          3
  66.6400          3
  66.7000          4
  66.7600          3
  66.8200          3
  66.8800          1
  66.9400          1
  67.0000          1
  67.0600          2
  67.1200          3
  67.1800          4
  67.2400          1
  67.3000          1
  67.3600          4
  67.4200          3
  67.4800          3
  67.5400          1
  67.6000          1
  67.6600          2
  67.7200          2
  67.7800          0
  67.8400          0
  67.9000          2
  67.9600          3
  68.0200          2
  68.0800          3
  68.1400          4
  68.2000          2
  68.2600          3
  68.3200          1
  68.3800          2
  68.4400          2
  68.5000          3
  68.5600          1
  68.6200          3
  68.6800          4
  68.7400          3
  68.8000          2
  68.8600          3
  68.9200          3
  68.9800          5
  69.0400          2
  69.1000          3
  69.1600          2
  69.2200          2
  69.2800          0
  69.3400          0
  69.4000          1
  69.4600          1
  69.5200          1
  69.5800          2
  69.6400          3
  69.7000          4
  69.7600          0
  69.8200          3
  69.8800          0
  69.9400          0
  70.0000          2
  70.0600          0
  70.1200          1
  70.1800          1
  70.2400          1
  70.3000          0
  70.3600          1
  70.4200          2
  70.4800          2
  70.5400          1
  70.6000          6
  70.6600          1
  70.7200          1
  70.7800          1
  70.8400          5
  70.9000          1
  70.9600          3
  71.0200          2
  71.0800          0
  71.1400          2
  71.2000          2
  71.2600          2
  71.3200          3
  71.3800          3
  71.4400          2
  71.5000          4
  71.5600          4
  71.6200          2
  71.6800          2
  71.7400          1
  71.8000          2
  71.8600          0
  71.9200          6
  71.9800          6
  72.0400          2
  72.1000          1
  72.1600          5
  72.2200          4
  72.2800          2
  72.3400          3
  72.4000          0
  72.4600          3
  72.5200          0
  72.5800          0
  72.6400          3
  72.7000          3
  72.7600          1
  72.8200          3
  72.8800          1
  72.9400          1
  73.0000          2
  73.0600          2
  73.1200          2
  73.1800          2
  73.2400          0
  73.3000          0
  73.3600          2
  73.4200          3
  73.4800          3
  73.5400          0
  73.6000          1
  73.6600          2
  73.7200          4
  73.7800          4
  73.8400          2
  73.9000          4
  73.9600          0
  74.0200          3
  74.0800          1
  74.1400          2
  74.2000          0
  74.2600          3
  74.3200          2
  74.3800          1
  74.4400          0
  74.5000          0
  74.5600          1
  74.6200          0
  74.6800          4
  74.7400          3
  74.8000          1
  74.8600          1
  74.9200          2
  74.9800          1
  75.0400          0
  75.1000          4
  75.1600          4
  75.2200          1
  75.2800          3
  75.3400          2
  75.4000          1
  75.4600          1
  75.5200          0
  75.5800          2
  75.6400          2
  75.7000          5
  75.7600          3
  75.8200          2
  75.8800          4
  75.9400          3
  76.0000          2
  76.0600          2
  76.1200          1
  76.1800          0
  76.2400          3
  76.3000          2
  76.3600          2
  76.4200          3
  76.4800          1
  76.5400          1
  76.6000          3
  76.6600          2
  76.7200          3
  76.7800          3
  76.8400          1
  76.9000          2
  76.9600          2
  77.0200          4
  77.0800          2
  77.1400          5
  77.2000          3
  77.2600          2
  77.3200          4
  77.3800         10
  77.4400          8
  77.5000          5
  77.5600          4
  77.6200          6
  77.6800          6
  77.7400          9
  77.8000          1
  77.8600          4
  77.9200          6
  77.9800          2
  78.0400          4
  78.1000          5
  78.1600          3
  78.2200          1
  78.2800          4
  78.3400          3
  78.4000          2
  78.4600          2
  78.5200          3
  78.5800          3
  78.6400          2
  78.7000          3
  78.7600          0
  78.8200          1
  78.8800          3
  78.9400          2
  79.0000          4
  79.0600          3
  79.1200          1
  79.1800          6
  79.2400          1
  79.3000          1
  79.3600          1
  79.4200          3
  79.4800          5
  79.5400          1
  79.6000          3
  79.6600          2
  79.7200          2
  79.7800          3
  79.8400          3
  79.9000          1
  79.9600          2
  80.0200          2
  80.0800          2
  80.1400          1
  80.2000          1
  80.2600          2
  80.3200          2
  80.3800          2
  80.4400          0
  80.5000          2
  80.5600          1
  80.6200          2
  80.6800          2
  80.7400          4
  80.8000          3
  80.8600          1
  80.9200          1
  80.9800          2
  81.0400          1
  81.1000          4
  81.1600          0
  81.2200          1
  81.2800          2
  81.3400          2
  81.4000          4
  81.4600          1
  81.5200          7
  81.5800          3
  81.6400          2
  81.7000          3
  81.7600          5
  81.8200          2
  81.8800          2
  81.9400          2
  82.0000          4
  82.0600          2
  82.1200          3
  82.1800          4
  82.2400          5
  82.3000          4
  82.3600          1
  82.4200          1
  82.4800          3
  82.5400          2
  82.6000          2
  82.6600          1
  82.7200          1
  82.7800          2
  82.8400          1
  82.9000          3
  82.9600          3
  83.0200          2
  83.0800          0
  83.1400          1
  83.2000          3
  83.2600          1
  83.3200          1
  83.3800          3
  83.4400          5
  83.5000          1
  83.5600          1
  83.6200          1
  83.6800          1
  83.7400          2
  83.8000          4
  83.8600          2
  83.9200          0
  83.9800          5
  84.0400          2
  84.1000          3
  84.1600          0
  84.2200          2
  84.2800          3
  84.3400          3
  84.4000          2
  84.4600          2
  84.5200          1
  84.5800          1
  84.6400          3
  84.7000          2
  84.7600          1
  84.8200          4
  84.8800          3
  84.9400          4
  85.0000          2
  85.0600          1
  85.1200          4
  85.1800          0
  85.2400          2
  85.3000          1
  85.3600          1
  85.4200          2
  85.4800          1
  85.5400          5
  85.6000          0
  85.6600          0
  85.7200          3
  85.7800          1
  85.8400          0
  85.9000          3
  85.9600          5
  86.0200          3
  86.0800          3
  86.1400          3
  86.2000          3
  86.2600          0
  86.3200          0
  86.3800          1
  86.4400          0
  86.5000          3
  86.5600          0
  86.6200          0
  86.6800          4
  86.7400          2
  86.8000          2
  86.8600          0
  86.9200          7
  86.9800          3
  87.0400          1
  87.1000          4
  87.1600          0
  87.2200          4
  87.2800          1
  87.3400          1
  87.4000          2
  87.4600          2
  87.5200          2
  87.5800          2
  87.6400          0
  87.7000          0
  87.7600          4
  87.8200          1
  87.8800          1
  87.9400          2
  88.0000          2
  88.0600          0
  88.1200          1
  88.1800          1
  88.2400          0
  88.3000          1
  88.3600          5
  88.4200          0
  88.4800          4
  88.5400          1
  88.6000          5
  88.6600          4
  88.7200          6
  88.7800          1
  88.8400          2
  88.9000          1
  88.9600          2
  89.0200          2
  89.0800          4
  89.1400          5
  89.2000          2
  89.2600          1
  89.3200          3
  89.3800          0
  89.4400          3
  89.5000          2
  89.5600          1
  89.6200          6
  89.6800          3
  89.7400          4
  89.8000          1
  89.8600          1
  89.9200          1
  89.9800          1
  90.0400          1
  90.1000          5
  90.1600          2
  90.2200          3
  90.2800          0
  90.3400          3
  90.4000          1
  90.4600          2
  90.5200          3
  90.5800          1
  90.6400          4
  90.7000          1
  90.7600          1
  90.8200          0
  90.8800          2
  90.9400          1
  91.0000          1
  91.0600          3
  91.1200          2
  91.1800          3
  91.2400          0
  91.3000          0
  91.3600          3
  91.4200          4
  91.4800          3
  91.5400          2
  91.6000          2
  91.6600          2
  91.7200          1
  91.7800          2
  91.8400          3
  91.9000          2
  91.9600          2
  92.0200          0
  92.0800          1
  92.1400          0
  92.2000          0
  92.2600          4
  92.3200          3
  92.3800          3
  92.4400          3
  92.5000          3
  92.5600          2
  92.6200          3
  92.6800          2
  92.7400          1
  92.8000          1
  92.8600          3
  92.9200          1
  92.9800          3
  93.0400          2
  93.1000          1
  93.1600          1
  93.2200          1
  93.2800          0
  93.3400          4
  93.4000          1
  93.4600          4
  93.5200          2
  93.5800          3
  93.6400          0
  93.7000          3
  93.7600          4
  93.8200          2
  93.8800          1
  93.9400          2
  94.0000          0
  94.0600          2
  94.1200          1
  94.1800          1
  94.2400          2
  94.3000          0
  94.3600          1
  94.4200          1
  94.4800          1
  94.5400          2
  94.6000          0
  94.6600          2
  94.7200          2
  94.7800          2
  94.8400          1
  94.9000          4
  94.9600          1
  95.0200          4
  95.0800          3
  95.1400          2
  95.2000          2
  95.2600          2
  95.3200          0
  95.3800          0
  95.4400          1
  95.5000          2
  95.5600          3
  95.6200          2
  95.6800          2
  95.7400          5
  95.8000          1
  95.8600          4
  95.9200          3
  95.9800          2
  96.0400          3
  96.1000          1
  96.1600          0
  96.2200          4
  96.2800          2
  96.3400          2
  96.4000          3
  96.4600          3
  96.5200          2
  96.5800          1
  96.6400          0
  96.7000          2
  96.7600          5
  96.8200          1
  96.8800          2
  96.9400          3
  97.0000          2
  97.0600          1
  97.1200          3
  97.1800          3
  97.2400          1
  97.3000          1
  97.3600          5
  97.4200          3
  97.4800          2
  97.5400          2
  97.6000          1
  97.6600          3
  97.7200          4
  97.7800          3
  97.8400          1
  97.9000          3
  97.9600          5
  98.0200          7
  98.0800          1
  98.1400          2
  98.2000          0
  98.2600          1
  98.3200          4
  98.3800          5
  98.4400          1
  98.5000          4
  98.5600          3
  98.6200          2
  98.6800          3
  98.7400          2
  98.8000          3
  98.8600          4
  98.9200          2
  98.9800          1
  99.0400          1
  99.1000          3
  99.1600          3
  99.2200          1
  99.2800          1
  99.3400          1
  99.4000          1
  99.4600          0
  99.5200          1
  99.5800          2
  99.6400          3
  99.7000          3
  99.7600          1
  99.8200          2
  99.8800          1
  99.9400          1
 100.0000          2
 100.0600          3
 100.1200          1
 100.1800          6
 100.2400          2
 100.3000          2
 100.3600          2
 100.4200          2
 100.4800          3
 100.5400          1
 100.6000          1
 100.6600          2
 100.7200          6
 100.7800          1
 100.8400          3
 100.9000          3
 100.9600          1
 101.0200          3
 101.0800          2
 101.1400          3
 101.2000          5
 101.2600          3
 101.3200          2
 101.3800          0
 101.4400          1
 101.5000          6
 101.5600          4
 101.6200          4
 101.6800          4
 101.7400          4
 101.8000          0
 101.8600          1
 101.9200          2
 101.9800          4
 102.0400          4
 102.1000          4
 102.1600          5
 102.2200          1
 102.2800          3
 102.3400          5
 102.4000          5
 102.4600          3
 102.5200          3
 102.5800         10
 102.6400         10
 102.7000         12
 102.7600          6
 102.8200          5
 102.8800          7
 102.9400          3
 103.0000          2
 103.0600          0
 103.1200          2
 103.1800          4
 103.2400          3
 103.3000          0
 103.3600          4
 103.4200          3
 103.4800          2
 103.5400          5
 103.6000          6
 103.6600          2
 103.7200          2
 103.7800          2
 103.8400          3
 103.9000          1
 103.9600          1
 104.0200          6
 104.0800          2
 104.1400          0
 104.2000          2
 104.2600          0
 104.3200          3
 104.3800          4
 104.4400          1
 104.5000          2
 104.5600          3
 104.6200          3
 104.6800          2
 104.7400          0
 104.8000          3
 104.8600          1
 104.9200          2
 104.9800          1
 105.0400          5
 105.1000          5
 105.1600          4
 105.2200          3
 105.2800          1
 105.3400          1
 105.4000          2
 105.4600          3
 105.5200          2
 105.5800          1
 105.6400          1
 105.7000          2
 105.7600          0
 105.8200          4
 105.8800          1
 105.9400          1
 106.0000          0
 106.0600          8
 106.1200          1
 106.1800          5
 106.2400          1
 106.3000          3
 106.3600          3
 106.4200          1
 106.4800          0
 106.5400          2
 106.6000          6
 106.6600          3
 106.7200          3
 106.7800          3
 106.8400          2
 106.9000          1
 106.9600          4
 107.0200          2
 107.0800          3
 107.1400          2
 107.2000          0
 107.2600          2
 107.3200          0
 107.3800          4
 107.4400          2
 107.5000          6
 107.5600          4
 107.6200          4
 107.6800          6
 107.7400          1
 107.8000          4
 107.8600          2
 107.9200          2
 107.9800          2
 108.0400          3
 108.1000          5
 108.1600          1
 108.2200          4
 108.2800          1
 108.3400          2
 108.4000          0
 108.4600          2
 108.5200          3
 108.5800          0
 108.6400          1
 108.7000          4
 108.7600          7
 108.8200          2
 108.8800          2
 108.9400          2
 109.0000          2
 109.0600          2
 109.1200          1
 109.1800          3
 109.2400          5
 109.3000          3
 109.3600          2
 109.4200          5
 109.4800          3
 109.5400          1
 109.6000          1
 109.6600          0
 109.7200          2
 109.7800          4
 109.8400          2
 109.9000          2
 109.9600          4
 110.0200          2
 110.0800          5
 110.1400          3
 110.2000          2
 110.2600          4
 110.3200          4
 110.3800          5
 110.4400         10
 110.5000          3
 110.5600          6
 110.6200          5
 110.6800          4
 110.7400          5
 110.8000          8
 110.8600          4
 110.9200          3
 110.9800          3
 111.0400          3
 111.1000          7
 111.1600          3
 111.2200          3
 111.2800          6
 111.3400          7
 111.4000          5
 111.4600          4
 111.5200          6
 111.5800          2
 111.6400          7
 111.7000          4
 111.7600          6
 111.8200         10
 111.8800          6
 111.9400          9
 112.0000          3
 112.0600          7
 112.1200          2
 112.1800          5
 112.2400          5
 112.3000          5
 112.3600          2
 112.4200          5
 112.4800          5
 112.5400          0
 112.6000          6
 112.6600          1
 112.7200          4
 112.7800          3
 112.8400          4
 112.9000          5
 112.9600          5
 113.0200         10
 113.0800         10
 113.1400         13
 113.2000         23
 113.2600         17
 113.3200         19
 113.3800         19
 113.4400         26
 113.5000         23
 113.5600         16
 113.6200         21
 113.6800         21
 113.7400         23
 113.8000         26
 113.8600         25
 113.9200         24
 113.9800         24
 114.0400         28
 114.1000         18
 114.1600         18
 114.2200         24
 114.2800         25
 114.3400         31
 114.4000         17
 114.4600         36
 114.5200         29
 114.5800         27
 114.6400         25
 114.7000         27
 114.7600         45
 114.8200         42
 114.8800         35
 114.9400         37
 115.0000         31
 115.0600         40
 115.1200         44
 115.1800         54
 115.2400         40
 115.3000         39
 115.3600         51
 115.4200         45
 115.4800         38
 115.5400         44
 115.6000         60
 115.6600         50
 115.7200         47
 115.7800         48
 115.8400         45
 115.9000         55
 115.9600         69
 116.0200         58
 116.0800         59
 116.1400         54
 116.2000         59
 116.2600         92
 116.3200         60
 116.3800         59
 116.4400         76
 116.5000         89
 116.5600         85
 116.6200         68
 116.6800         70
 116.7400         87
 116.8000         78
 116.8600         72
 116.9200         92
 116.9800         91
 117.0400         90
 117.1000         96
 117.1600         92
 117.2200        114
 117.2800        116
 117.3400        116
 117.4000        123
 117.4600        103
 117.5200        142
 117.5800        102
 117.6400        132
 117.7000        154
 117.7600        133
 117.8200        144
 117.8800        158
 117.9400        163
 118.0000        200
 118.0600        204
 118.1200        241
 118.1800        225
 118.2400        235
 118.3000        283
 118.3600        325
 118.4200        360
 118.4800        443
 118.5400        604
 118.6000        795
 118.6600       1009
 118.7200       1095
 118.7800       1150
 118.8400       1144
 118.9000       1070
 118.9600       1073
 119.0200       1211
 119.0800       1526
 119.1400       1914
 119.2000       2693
 119.2600       3994
 119.3200       6706
 119.3800      14109
 119.4400      37800
 119.5000     129450
 119.5600     132132
 119.6200      54805
 119.6800      19196
 119.7400       9421
 119.8000       7288
 119.8600      10043
 119.9200      22304
 119.9800      59167
 120.0400      72005
 120.1000      34554
 120.1600      12953
 120.2200       5722
 120.2800       3285
 120.3400       2242
 120.4000       1781
 120.4600       1360
 120.5200       1176
 120.5800        968
 120.6400        876
 120.7000        766
 120.7600        680
 120.8200        592
 120.8800        535
 120.9400        505
 121.0000        472
 121.0600        425
 121.1200        414
 121.1800        374
 121.2400        331
 121.3000        327
 121.3600        311
 121.4200        298
 121.4800        276
 121.5400        256
 121.6000        258
 121.6600        248
 121.7200        246
 121.7800        236
 121.8400        227
 121.9000        215
 121.9600        207
 122.0000        196