File: data/0812B_2th_all.uxd
; (content of file \\Mai-b11e5c0abfd\d8\User\55373\0851539\0901\0812B_2th_all.raw)
_FILEVERSION = 2
_SAMPLE =
_+SAMPLE =
_SITE = Taiwan
_USER = Administrator
_GONIOMETER_CODE = 20
_STAGE_CODE = 13
; Goniometer : D8 theta/2theta, stage : Unknown
_SAMPLE_CHANGER_CODE = 0
_ATTACHMENTS_CODE = 0
_GONIOMETER_RADIUS = 300
_FIXED_DIVSLIT = 0.6
_FIXED_SAMPLESLIT = 0
_FIXED_DETSLIT = 0.1
_MONOCHROMATOR = 0
; Incident beam monochromator : None
_THIN_FILM = N
_BETA_FILTER = N
_FIXED_ANTISLIT = 0.6
_ANALYZER_CODE = 0
; Received beam analyzer : None
_DATEMEASURED = "01-Sep-2021 12:12:13"
_WL_UNIT = A
_WL1 = 1.5406
_WL2 = 1.54439
_WL3 = 1.39222
_WLRATIO = 0.5
_ANODE = Cu

; Data for range 1
_DRIVE = COUPLED
_STEPTIME = 0.3
_STEPSIZE = 0.02
_STEPMODE = C
_START = 34
_THETA = 16.78
_2THETA = 34
_KHI = 0
_PHI = 8
_X = 0
_Y = 0
_Z = -0.161
_DETECTOR = 1
; Detector type : Scintillation counter
_HV = 662
_GAIN = 80
_LLD = 0.545
_ULD = 1.917
_DETECTORSLIT = out
_AUX1 = 0
_AUX2 = 0
_AUX3 = 0
_TIMESTARTED = 16
_TEMP_RATE = -1
_TEMP_DELAY = -1
_KV = 40
_MA = 40
_RANGE_WL = 1.5406
_3DPLANE = 0
_V4_COUNTERS_MASK = 1
_V4_DRIVES_MASK = 0
_V4_ENCODERS_MASK = 0
_2THETACOUNTS = 1
; 2THETA  Cnt1_D1
  34.0000          8
  34.0600          7
  34.1200         10
  34.1800          2
  34.2400          6
  34.3000          4
  34.3600          5
  34.4200          4
  34.4800          4
  34.5400          3
  34.6000          5
  34.6600          6
  34.7200          5
  34.7800          0
  34.8400          9
  34.9000          8
  34.9600          2
  35.0200          6
  35.0800          6
  35.1400          6
  35.2000          5
  35.2600          3
  35.3200          6
  35.3800          6
  35.4400          6
  35.5000          3
  35.5600          4
  35.6200          4
  35.6800          4
  35.7400          4
  35.8000          8
  35.8600          2
  35.9200          2
  35.9800          1
  36.0400          3
  36.1000          3
  36.1600          4
  36.2200          5
  36.2800          6
  36.3400          4
  36.4000          2
  36.4600          3
  36.5200          5
  36.5800         12
  36.6400          3
  36.7000          3
  36.7600          7
  36.8200          3
  36.8800          6
  36.9400          5
  37.0000          4
  37.0600          4
  37.1200          3
  37.1800          4
  37.2400          3
  37.3000          6
  37.3600          7
  37.4200          2
  37.4800          2
  37.5400          6
  37.6000          3
  37.6600          4
  37.7200          4
  37.7800          3
  37.8400          7
  37.9000          3
  37.9600         18
  38.0200         12
  38.0800         11
  38.1400         22
  38.2000         32
  38.2600         26
  38.3200         19
  38.3800         16
  38.4400         10
  38.5000          9
  38.5600          5
  38.6200          1
  38.6800         11
  38.7400          5
  38.8000          2
  38.8600          5
  38.9200          5
  38.9800         10
  39.0400          5
  39.1000         10
  39.1600          5
  39.2200          3
  39.2800          2
  39.3400          7
  39.4000          3
  39.4600          3
  39.5200          5
  39.5800          2
  39.6400          6
  39.7000          6
  39.7600          3
  39.8200          9
  39.8800          5
  39.9400          3
  40.0000          5
  40.0600          2
  40.1200          4
  40.1800          3
  40.2400          2
  40.3000          7
  40.3600          6
  40.4200          1
  40.4800          8
  40.5400          1
  40.6000          6
  40.6600          4
  40.7200          5
  40.7800          3
  40.8400          1
  40.9000          4
  40.9600          7
  41.0200          1
  41.0800          5
  41.1400          4
  41.2000          6
  41.2600          8
  41.3200          1
  41.3800          6
  41.4400          4
  41.5000          5
  41.5600          7
  41.6200          3
  41.6800          4
  41.7400          3
  41.8000          5
  41.8600          5
  41.9200          1
  41.9800          5
  42.0400          4
  42.1000          5
  42.1600          1
  42.2200          4
  42.2800          2
  42.3400          5
  42.4000          2
  42.4600          4
  42.5200          1
  42.5800          7
  42.6400          4
  42.7000          0
  42.7600          4
  42.8200          1
  42.8800          1
  42.9400          7
  43.0000          5
  43.0600          2
  43.1200          5
  43.1800          1
  43.2400          6
  43.3000          6
  43.3600          3
  43.4200          0
  43.4800          3
  43.5400          7
  43.6000          6
  43.6600          1
  43.7200          3
  43.7800          2
  43.8400          8
  43.9000          4
  43.9600          4
  44.0200          2
  44.0800          4
  44.1400          5
  44.2000          6
  44.2600          6
  44.3200          5
  44.3800          6
  44.4400         10
  44.5000         13
  44.5600          5
  44.6200          8
  44.6800          2
  44.7400          8
  44.8000          8
  44.8600          3
  44.9200          3
  44.9800          4
  45.0400          3
  45.1000          4
  45.1600          2
  45.2200          4
  45.2800          6
  45.3400          5
  45.4000          2
  45.4600          6
  45.5200          1
  45.5800          3
  45.6400          8
  45.7000          4
  45.7600          2
  45.8200          2
  45.8800          0
  45.9400          3
  46.0000          5
  46.0600          2
  46.1200          4
  46.1800          7
  46.2400          5
  46.3000          6
  46.3600          2
  46.4200          3
  46.4800          2
  46.5400          3
  46.6000          5
  46.6600          4
  46.7200          2
  46.7800          1
  46.8400          3
  46.9000          2
  46.9600          2
  47.0200          7
  47.0800          3
  47.1400          4
  47.2000          4
  47.2600          3
  47.3200          1
  47.3800          5
  47.4400          7
  47.5000          4
  47.5600          3
  47.6200          7
  47.6800          6
  47.7400          2
  47.8000          4
  47.8600          5
  47.9200          3
  47.9800          4
  48.0400          2
  48.1000          6
  48.1600          3
  48.2200          3
  48.2800          2
  48.3400          3
  48.4000          3
  48.4600          2
  48.5200          1
  48.5800          7
  48.6400          5
  48.7000          1
  48.7600          7
  48.8200          3
  48.8800          8
  48.9400          2
  49.0000          3
  49.0600          3
  49.1200          4
  49.1800          7
  49.2400          2
  49.3000          2
  49.3600          3
  49.4200          1
  49.4800          1
  49.5400          4
  49.6000          3
  49.6600          8
  49.7200          3
  49.7800          8
  49.8400          5
  49.9000          3
  49.9600          3
  50.0200          3
  50.0800          2
  50.1400          4
  50.2000          6
  50.2600          4
  50.3200          6
  50.3800          5
  50.4400          5
  50.5000          8
  50.5600          7
  50.6200         15
  50.6800          5
  50.7400          4
  50.8000          6
  50.8600          1
  50.9200          1
  50.9800          3
  51.0400          1
  51.1000          3
  51.1600          5
  51.2200          2
  51.2800          7
  51.3400          3
  51.4000          6
  51.4600          2
  51.5200          4
  51.5800          1
  51.6400          2
  51.7000          6
  51.7600          0
  51.8200          2
  51.8800          2
  51.9400          5
  52.0000          1
  52.0600          2
  52.1200          6
  52.1800          6
  52.2400          2
  52.3000          4
  52.3600          2
  52.4200          5
  52.4800          3
  52.5400          4
  52.6000          2
  52.6600          1
  52.7200          1
  52.7800          3
  52.8400          3
  52.9000          5
  52.9600          4
  53.0200          4
  53.0800          3
  53.1400          8
  53.2000          3
  53.2600          2
  53.3200          0
  53.3800          1
  53.4400          2
  53.5000          2
  53.5600          7
  53.6200          2
  53.6800          3
  53.7400          7
  53.8000          6
  53.8600          2
  53.9200          5
  53.9800          4
  54.0400          5
  54.1000          7
  54.1600          2
  54.2200          3
  54.2800          1
  54.3400          5
  54.4000          4
  54.4600          3
  54.5200          6
  54.5800          4
  54.6400          3
  54.7000          4
  54.7600          3
  54.8200          4
  54.8800          1
  54.9400          0
  55.0000          5
  55.0600          2
  55.1200          3
  55.1800          4
  55.2400          5
  55.3000          3
  55.3600          1
  55.4200          3
  55.4800          7
  55.5400          4
  55.6000          3
  55.6600          2
  55.7200          3
  55.7800          3
  55.8400          3
  55.9000          3
  55.9600          3
  56.0200          3
  56.0800          3
  56.1400          1
  56.2000          6
  56.2600          4
  56.3200          5
  56.3800          2
  56.4400          5
  56.5000          3
  56.5600          1
  56.6200          2
  56.6800          4
  56.7400          5
  56.8000          2
  56.8600          3
  56.9200          1
  56.9800          5
  57.0400          2
  57.1000          3
  57.1600          4
  57.2200          0
  57.2800          1
  57.3400          4
  57.4000          2
  57.4600          1
  57.5200          5
  57.5800          4
  57.6400          2
  57.7000          5
  57.7600          6
  57.8200          2
  57.8800          7
  57.9400          6
  58.0000          2
  58.0600          7
  58.1200          1
  58.1800          1
  58.2400          2
  58.3000          2
  58.3600          3
  58.4200          4
  58.4800          5
  58.5400          2
  58.6000          1
  58.6600          2
  58.7200          6
  58.7800          4
  58.8400          3
  58.9000          5
  58.9600          3
  59.0200          6
  59.0800          1
  59.1400          2
  59.2000          2
  59.2600          2
  59.3200          6
  59.3800          2
  59.4400          5
  59.5000          4
  59.5600          2
  59.6200          7
  59.6800          4
  59.7400          4
  59.8000          3
  59.8600          1
  59.9200          2
  59.9800          2
  60.0400          2
  60.1000          3
  60.1600          3
  60.2200          3
  60.2800          2
  60.3400          1
  60.4000          5
  60.4600          3
  60.5200          2
  60.5800          2
  60.6400          7
  60.7000          3
  60.7600          5
  60.8200          5
  60.8800          3
  60.9400          5
  61.0000          5
  61.0600          3
  61.1200          2
  61.1800          5
  61.2400          4
  61.3000          3
  61.3600          3
  61.4200          3
  61.4800          3
  61.5400          2
  61.6000          4
  61.6600          5
  61.7200          4
  61.7800          2
  61.8400          2
  61.9000          1
  61.9600          2
  62.0200          3
  62.0800          7
  62.1400          4
  62.2000          1
  62.2600          3
  62.3200          2
  62.3800          5
  62.4400          3
  62.5000          5
  62.5600          6
  62.6200          2
  62.6800          1
  62.7400          2
  62.8000          4
  62.8600          5
  62.9200          4
  62.9800          3
  63.0400          3
  63.1000          1
  63.1600          1
  63.2200          1
  63.2800          4
  63.3400          5
  63.4000          2
  63.4600          3
  63.5200          4
  63.5800          3
  63.6400          2
  63.7000          1
  63.7600          1
  63.8200          2
  63.8800          2
  63.9400          2
  64.0000          8
  64.0600          3
  64.1200          3
  64.1800          1
  64.2400          2
  64.3000          3
  64.3600          3
  64.4200          7
  64.4800          5
  64.5400          5
  64.6000         10
  64.6600          2
  64.7200          7
  64.7800          5
  64.8400          5
  64.9000          7
  64.9600          5
  65.0200          0
  65.0800          5
  65.1400          2
  65.2000         11
  65.2600          2
  65.3200          3
  65.3800          4
  65.4400          5
  65.5000          1
  65.5600          6
  65.6200          1
  65.6800          0
  65.7400          2
  65.8000          1
  65.8600          2
  65.9200          2
  65.9800          3
  66.0400          6
  66.1000          4
  66.1600          5
  66.2200          4
  66.2800          8
  66.3400          4
  66.4000          3
  66.4600          5
  66.5200          6
  66.5800          2
  66.6400          5
  66.7000          5
  66.7600          5
  66.8200          4
  66.8800          4
  66.9400          1
  67.0000          2
  67.0600          1
  67.1200          3
  67.1800          8
  67.2400          3
  67.3000          6
  67.3600          6
  67.4200          1
  67.4800          3
  67.5400          3
  67.6000          4
  67.6600          3
  67.7200          4
  67.7800          1
  67.8400          0
  67.9000          3
  67.9600          5
  68.0200          5
  68.0800          6
  68.1400          3
  68.2000          5
  68.2600          3
  68.3200          5
  68.3800          4
  68.4400          6
  68.5000          5
  68.5600          3
  68.6200          6
  68.6800          4
  68.7400          1
  68.8000          3
  68.8600          1
  68.9200          2
  68.9800          8
  69.0400          4
  69.1000          3
  69.1600          3
  69.2200          3
  69.2800          1
  69.3400          2
  69.4000          3
  69.4600          2
  69.5200          2
  69.5800          4
  69.6400          1
  69.7000          6
  69.7600          2
  69.8200          4
  69.8800          3
  69.9400          1
  70.0000          1
  70.0600          9
  70.1200          5
  70.1800          1
  70.2400          6
  70.3000          2
  70.3600          3
  70.4200          6
  70.4800          4
  70.5400          3
  70.6000          2
  70.6600          2
  70.7200          2
  70.7800          3
  70.8400          1
  70.9000          3
  70.9600          5
  71.0200          4
  71.0800          4
  71.1400          4
  71.2000          2
  71.2600          6
  71.3200          3
  71.3800          2
  71.4400          4
  71.5000          0
  71.5600          3
  71.6200          3
  71.6800          1
  71.7400          6
  71.8000          2
  71.8600          5
  71.9200          2
  71.9800          5
  72.0400          3
  72.1000          2
  72.1600          1
  72.2200          5
  72.2800          4
  72.3400          1
  72.4000          4
  72.4600          1
  72.5200          3
  72.5800          2
  72.6400          2
  72.7000          2
  72.7600          4
  72.8200          2
  72.8800          2
  72.9400          0
  73.0000          4
  73.0600          2
  73.1200          4
  73.1800          1
  73.2400          4
  73.3000          3
  73.3600          2
  73.4200          5
  73.4800          3
  73.5400          6
  73.6000          5
  73.6600          6
  73.7200          4
  73.7800          3
  73.8400          5
  73.9000          3
  73.9600          4
  74.0200          3
  74.0800          2
  74.1400          3
  74.2000          4
  74.2600          2
  74.3200          3
  74.3800          3
  74.4400          4
  74.5000          7
  74.5600          3
  74.6200          5
  74.6800          6
  74.7400          1
  74.8000          2
  74.8600          2
  74.9200          2
  74.9800          2
  75.0400          3
  75.1000          0
  75.1600          6
  75.2200          7
  75.2800          5
  75.3400          2
  75.4000          0
  75.4600          3
  75.5200          3
  75.5800          3
  75.6400          1
  75.7000          5
  75.7600          3
  75.8200          3
  75.8800          5
  75.9400          4
  76.0000          3
  76.0600          3
  76.1200          5
  76.1800          5
  76.2400          3
  76.3000          2
  76.3600          4
  76.4200          2
  76.4800          2
  76.5400          6
  76.6000          1
  76.6600          2
  76.7200          3
  76.7800          3
  76.8400          2
  76.9000          4
  76.9600          6
  77.0200          2
  77.0800          3
  77.1400          5
  77.2000          2
  77.2600          3
  77.3200          1
  77.3800          5
  77.4400          3
  77.5000          7
  77.5600          8
  77.6200          4
  77.6800          5
  77.7400          6
  77.8000          8
  77.8600          9
  77.9200          7
  77.9800          7
  78.0400          5
  78.1000          3
  78.1600          0
  78.2200          5
  78.2800          3
  78.3400          5
  78.4000          3
  78.4600          2
  78.5200          5
  78.5800          5
  78.6400          1
  78.7000          3
  78.7600          1
  78.8200          5
  78.8800          5
  78.9400          6
  79.0000          2
  79.0600          3
  79.1200          6
  79.1800          7
  79.2400          2
  79.3000          4
  79.3600          2
  79.4200          3
  79.4800          8
  79.5400          7
  79.6000          2
  79.6600          0
  79.7200          4
  79.7800          1
  79.8400          5
  79.9000          4
  79.9600          2
  80.0200          5
  80.0800          3
  80.1400          3
  80.2000          1
  80.2600          3
  80.3200          1
  80.3800          4
  80.4400          3
  80.5000          4
  80.5600          2
  80.6200          1
  80.6800          3
  80.7400          3
  80.8000          6
  80.8600          2
  80.9200          2
  80.9800          4
  81.0400          2
  81.1000          2
  81.1600          2
  81.2200          5
  81.2800          4
  81.3400          2
  81.4000          4
  81.4600          2
  81.5200          5
  81.5800          1
  81.6400          3
  81.7000          5
  81.7600          3
  81.8200          3
  81.8800          6
  81.9400          3
  82.0000          1
  82.0600          2
  82.1200          5
  82.1800          2
  82.2400          6
  82.3000          2
  82.3600          2
  82.4200          3
  82.4800          4
  82.5400          7
  82.6000          1
  82.6600          2
  82.7200          1
  82.7800          1
  82.8400          2
  82.9000          5
  82.9600          0
  83.0200          6
  83.0800          4
  83.1400          3
  83.2000          2
  83.2600          4
  83.3200          2
  83.3800          4
  83.4400          1
  83.5000          2
  83.5600          1
  83.6200          4
  83.6800          6
  83.7400          2
  83.8000          7
  83.8600          6
  83.9200          4
  83.9800          6
  84.0400          1
  84.1000          3
  84.1600          7
  84.2200          2
  84.2800          5
  84.3400          2
  84.4000          4
  84.4600          4
  84.5200          2
  84.5800          3
  84.6400          2
  84.7000          4
  84.7600          1
  84.8200          1
  84.8800          2
  84.9400          2
  85.0000          3
  85.0600          5
  85.1200          5
  85.1800          4
  85.2400          2
  85.3000          1
  85.3600          3
  85.4200          5
  85.4800          8
  85.5400          2
  85.6000          7
  85.6600          3
  85.7200          1
  85.7800          3
  85.8400          7
  85.9000          2
  85.9600          2
  86.0200          5
  86.0800          1
  86.1400          1
  86.2000          1
  86.2600          3
  86.3200          1
  86.3800          5
  86.4400          6
  86.5000          6
  86.5600          1
  86.6200          1
  86.6800          2
  86.7400          5
  86.8000          7
  86.8600          3
  86.9200          3
  86.9800          3
  87.0400          4
  87.1000          1
  87.1600          1
  87.2200          4
  87.2800          3
  87.3400          2
  87.4000          0
  87.4600          6
  87.5200          2
  87.5800          0
  87.6400          4
  87.7000          2
  87.7600          6
  87.8200          1
  87.8800          4
  87.9400          4
  88.0000          2
  88.0600          2
  88.1200          1
  88.1800          4
  88.2400          3
  88.3000          2
  88.3600          1
  88.4200          5
  88.4800          2
  88.5400          3
  88.6000          6
  88.6600          3
  88.7200          2
  88.7800          1
  88.8400          5
  88.9000          4
  88.9600          5
  89.0200          2
  89.0800          4
  89.1400          0
  89.2000          3
  89.2600          4
  89.3200          2
  89.3800          4
  89.4400          3
  89.5000          6
  89.5600          5
  89.6200          8
  89.6800          5
  89.7400          0
  89.8000          3
  89.8600          8
  89.9200          7
  89.9800          4
  90.0400          3
  90.1000          4
  90.1600          4
  90.2200          1
  90.2800          2
  90.3400          6
  90.4000          5
  90.4600          4
  90.5200          3
  90.5800          5
  90.6400          2
  90.7000          4
  90.7600          4
  90.8200          4
  90.8800          4
  90.9400          5
  91.0000          2
  91.0600          4
  91.1200          1
  91.1800          2
  91.2400          1
  91.3000          3
  91.3600          3
  91.4200          3
  91.4800          3
  91.5400          2
  91.6000          1
  91.6600          8
  91.7200          4
  91.7800          2
  91.8400          5
  91.9000          5
  91.9600          3
  92.0200          4
  92.0800          2
  92.1400          4
  92.2000          7
  92.2600          1
  92.3200          1
  92.3800          0
  92.4400          4
  92.5000          3
  92.5600          2
  92.6200          7
  92.6800          3
  92.7400          5
  92.8000          2
  92.8600          0
  92.9200          2
  92.9800          4
  93.0400          2
  93.1000          5
  93.1600          5
  93.2200          1
  93.2800          4
  93.3400          1
  93.4000          4
  93.4600          5
  93.5200          2
  93.5800          3
  93.6400          2
  93.7000          2
  93.7600          3
  93.8200          6
  93.8800          6
  93.9400          6
  94.0000          2
  94.0600          5
  94.1200          4
  94.1800          1
  94.2400          6
  94.3000          2
  94.3600          5
  94.4200          2
  94.4800          2
  94.5400          4
  94.6000          6
  94.6600          4
  94.7200          3
  94.7800          3
  94.8400          5
  94.9000          0
  94.9600          3
  95.0200          3
  95.0800          4
  95.1400          3
  95.2000          1
  95.2600          6
  95.3200          3
  95.3800          4
  95.4400          3
  95.5000          7
  95.5600          3
  95.6200          2
  95.6800          5
  95.7400          6
  95.8000          2
  95.8600          4
  95.9200          7
  95.9800          6
  96.0400          4
  96.1000          2
  96.1600          3
  96.2200          6
  96.2800          1
  96.3400         10
  96.4000          2
  96.4600          6
  96.5200          1
  96.5800          4
  96.6400          4
  96.7000          5
  96.7600          3
  96.8200          3
  96.8800          1
  96.9400          1
  97.0000          4
  97.0600          3
  97.1200          4
  97.1800          4
  97.2400          1
  97.3000          2
  97.3600          3
  97.4200          1
  97.4800          1
  97.5400          3
  97.6000          1
  97.6600          2
  97.7200          1
  97.7800          3
  97.8400          4
  97.9000          3
  97.9600          6
  98.0200          3
  98.0800          1
  98.1400          2
  98.2000          7
  98.2600          4
  98.3200          3
  98.3800          2
  98.4400          5
  98.5000          2
  98.5600          4
  98.6200          6
  98.6800          0
  98.7400          5
  98.8000          5
  98.8600          1
  98.9200          1
  98.9800          5
  99.0400          3
  99.1000          3
  99.1600          4
  99.2200          1
  99.2800          2
  99.3400          2
  99.4000          4
  99.4600          8
  99.5200          2
  99.5800          8
  99.6400          6
  99.7000          4
  99.7600          2
  99.8200          5
  99.8800          3
  99.9400          1
 100.0000          3
 100.0600          1
 100.1200          3
 100.1800          3
 100.2400          5
 100.3000          5
 100.3600          3
 100.4200          4
 100.4800          4
 100.5400          7
 100.6000          5
 100.6600          8
 100.7200          1
 100.7800          4
 100.8400          6
 100.9000          4
 100.9600          4
 101.0200          2
 101.0800          1
 101.1400          3
 101.2000          2
 101.2600          2
 101.3200          3
 101.3800          8
 101.4400          5
 101.5000          2
 101.5600          7
 101.6200          5
 101.6800          1
 101.7400          5
 101.8000          5
 101.8600          4
 101.9200          2
 101.9800          2
 102.0400          5
 102.1000          2
 102.1600          8
 102.2200          4
 102.2800          5
 102.3400          4
 102.4000          4
 102.4600          7
 102.5200          6
 102.5800         19
 102.6400         17
 102.7000         16
 102.7600          8
 102.8200          6
 102.8800          4
 102.9400          6
 103.0000          4
 103.0600          5
 103.1200          6
 103.1800          5
 103.2400          4
 103.3000          2
 103.3600          2
 103.4200          6
 103.4800          3
 103.5400          0
 103.6000          4
 103.6600          3
 103.7200          7
 103.7800          5
 103.8400          4
 103.9000          6
 103.9600          7
 104.0200          0
 104.0800          1
 104.1400          5
 104.2000          5
 104.2600          3
 104.3200          1
 104.3800          6
 104.4400          2
 104.5000          4
 104.5600          5
 104.6200          5
 104.6800          2
 104.7400          6
 104.8000          2
 104.8600          4
 104.9200          2
 104.9800          6
 105.0400          3
 105.1000          5
 105.1600          5
 105.2200          6
 105.2800          6
 105.3400          4
 105.4000          1
 105.4600          2
 105.5200          3
 105.5800          1
 105.6400          3
 105.7000          3
 105.7600          2
 105.8200          6
 105.8800          4
 105.9400          2
 106.0000          4
 106.0600         11
 106.1200          2
 106.1800          2
 106.2400          4
 106.3000          6
 106.3600          5
 106.4200          1
 106.4800          5
 106.5400          4
 106.6000          5
 106.6600          4
 106.7200          7
 106.7800          8
 106.8400          7
 106.9000          4
 106.9600          3
 107.0200          6
 107.0800          4
 107.1400          4
 107.2000          2
 107.2600          2
 107.3200          2
 107.3800          6
 107.4400          2
 107.5000          8
 107.5600          2
 107.6200          3
 107.6800          4
 107.7400          1
 107.8000          3
 107.8600          4
 107.9200          4
 107.9800          3
 108.0400          2
 108.1000          1
 108.1600          4
 108.2200         10
 108.2800          3
 108.3400          4
 108.4000          5
 108.4600          2
 108.5200          2
 108.5800          5
 108.6400          2
 108.7000          2
 108.7600          4
 108.8200          5
 108.8800          2
 108.9400          2
 109.0000          4
 109.0600          3
 109.1200          5
 109.1800          5
 109.2400         10
 109.3000          8
 109.3600          2
 109.4200          7
 109.4800          7
 109.5400          6
 109.6000          8
 109.6600          3
 109.7200          8
 109.7800          5
 109.8400          2
 109.9000          6
 109.9600          3
 110.0200          3
 110.0800          7
 110.1400          6
 110.2000          3
 110.2600          5
 110.3200          4
 110.3800          7
 110.4400          6
 110.5000          8
 110.5600         11
 110.6200          8
 110.6800          4
 110.7400          2
 110.8000          5
 110.8600          5
 110.9200          4
 110.9800          6
 111.0400          6
 111.1000          6
 111.1600         11
 111.2200          3
 111.2800          6
 111.3400          3
 111.4000          8
 111.4600         11
 111.5200          8
 111.5800          5
 111.6400          7
 111.7000          9
 111.7600          8
 111.8200          7
 111.8800          7
 111.9400          7
 112.0000          8
 112.0600          2
 112.1200         10
 112.1800          3
 112.2400          6
 112.3000          4
 112.3600          9
 112.4200          6
 112.4800          5
 112.5400          5
 112.6000          2
 112.6600          3
 112.7200          4
 112.7800          6
 112.8400          9
 112.9000         10
 112.9600         14
 113.0200         15
 113.0800         24
 113.1400         29
 113.2000         27
 113.2600         20
 113.3200         32
 113.3800         35
 113.4400         27
 113.5000         20
 113.5600         30
 113.6200         37
 113.6800         39
 113.7400         46
 113.8000         45
 113.8600         50
 113.9200         36
 113.9800         32
 114.0400         32
 114.1000         48
 114.1600         53
 114.2200         48
 114.2800         52
 114.3400         50
 114.4000         60
 114.4600         57
 114.5200         36
 114.5800         47
 114.6400         59
 114.7000         61
 114.7600         67
 114.8200         62
 114.8800         61
 114.9400         40
 115.0000         61
 115.0600         69
 115.1200         50
 115.1800         56
 115.2400         79
 115.3000         79
 115.3600         59
 115.4200         70
 115.4800         81
 115.5400         79
 115.6000         83
 115.6600         59
 115.7200         83
 115.7800         89
 115.8400         76
 115.9000         77
 115.9600         91
 116.0200        107
 116.0800         84
 116.1400         91
 116.2000        105
 116.2600        118
 116.3200        106
 116.3800         92
 116.4400        127
 116.5000        110
 116.5600        115
 116.6200        109
 116.6800        134
 116.7400        156
 116.8000        148
 116.8600        139
 116.9200        130
 116.9800        133
 117.0400        142
 117.1000        150
 117.1600        146
 117.2200        143
 117.2800        153
 117.3400        165
 117.4000        167
 117.4600        180
 117.5200        223
 117.5800        202
 117.6400        190
 117.7000        226
 117.7600        252
 117.8200        240
 117.8800        249
 117.9400        250
 118.0000        282
 118.0600        311
 118.1200        375
 118.1800        351
 118.2400        366
 118.3000        453
 118.3600        487
 118.4200        688
 118.4800        843
 118.5400       1114
 118.6000       1410
 118.6600       1525
 118.7200       1600
 118.7800       1523
 118.8400       1487
 118.9000       1552
 118.9600       1647
 119.0200       1991
 119.0800       2486
 119.1400       3411
 119.2000       5047
 119.2600       8229
 119.3200      16294
 119.3800      44057
 119.4400     160473
 119.5000     190091
 119.5600      80995
 119.6200      28223
 119.6800      12896
 119.7400       9371
 119.8000      11804
 119.8600      25020
 119.9200      69657
 119.9800     100638
 120.0400      51583
 120.1000      18733
 120.1600       8002
 120.2200       4450
 120.2800       3050
 120.3400       2362
 120.4000       1838
 120.4600       1499
 120.5200       1275
 120.5800       1088
 120.6400        953
 120.7000        885
 120.7600        813
 120.8200        714
 120.8800        610
 120.9400        599
 121.0000        533
 121.0600        491
 121.1200        530
 121.1800        446
 121.2400        427
 121.3000        373
 121.3600        325
 121.4200        347
 121.4800        335
 121.5400        281
 121.6000        330
 121.6600        285
 121.7200        283
 121.7800        264
 121.8400        282
 121.9000        273
 121.9600        252
 122.0000        235