File: data/0812B_RC_13_23.uxd
; (content of file \\Mai-b11e5c0abfd\d8\User\55373\0851539\0901\0812B_RC_13_23.raw)
_FILEVERSION = 2
_SAMPLE =
_+SAMPLE =
_SITE = Taiwan
_USER = Administrator
_GONIOMETER_CODE = 20
_STAGE_CODE = 13
; Goniometer : D8 theta/2theta, stage : Unknown
_SAMPLE_CHANGER_CODE = 0
_ATTACHMENTS_CODE = 0
_GONIOMETER_RADIUS = 300
_FIXED_DIVSLIT = 0.6
_FIXED_SAMPLESLIT = 0
_FIXED_DETSLIT = 0.1
_MONOCHROMATOR = 0
; Incident beam monochromator : None
_THIN_FILM = N
_BETA_FILTER = N
_FIXED_ANTISLIT = 0.6
_ANALYZER_CODE = 0
; Received beam analyzer : None
_DATEMEASURED = "01-Sep-2021 12:45:45"
_WL_UNIT = A
_WL1 = 1.5406
_WL2 = 1.54439
_WL3 = 1.39222
_WLRATIO = 0.5
_ANODE = Cu

; Data for range 1
_DRIVE = THETA
_STEPTIME = 0.3
_STEPSIZE = 0.02
_STEPMODE = S
_START = 13
_THETA = 13
_2THETA = 38.2
_KHI = 0
_PHI = 8
_X = 0
_Y = 0
_Z = -0.161
_DETECTOR = 1
; Detector type : Scintillation counter
_HV = 662
_GAIN = 80
_LLD = 0.545
_ULD = 1.917
_DETECTORSLIT = out
_AUX1 = 0
_AUX2 = 0
_AUX3 = 0
_TIMESTARTED = 18
_TEMP_RATE = -1
_TEMP_DELAY = -1
_KV = 40
_MA = 40
_RANGE_WL = 1.5406
_3DPLANE = 0
_V4_COUNTERS_MASK = 1
_V4_DRIVES_MASK = 0
_V4_ENCODERS_MASK = 0
_2THETACOUNTS = 1
; THETA  Cnt1_D1
  13.0000         22
  13.0200         15
  13.0400         23
  13.0600         14
  13.0800         20
  13.1000         26
  13.1200         20
  13.1400         30
  13.1600         18
  13.1800         34
  13.2000         21
  13.2200         16
  13.2400         22
  13.2600         19
  13.2800         29
  13.3000         21
  13.3200         11
  13.3400         22
  13.3600         18
  13.3800         29
  13.4000         18
  13.4200         20
  13.4400         21
  13.4600         26
  13.4800          8
  13.5000         26
  13.5200         18
  13.5400         28
  13.5600         19
  13.5800         18
  13.6000         23
  13.6200         20
  13.6400         18
  13.6600         28
  13.6800         24
  13.7000         24
  13.7200         20
  13.7400         25
  13.7600         23
  13.7800         28
  13.8000         26
  13.8200         21
  13.8400         24
  13.8600         21
  13.8800         24
  13.9000         25
  13.9200         29
  13.9400         11
  13.9600         26
  13.9800         21
  14.0000         24
  14.0200         34
  14.0400         26
  14.0600         23
  14.0800         16
  14.1000         21
  14.1200         17
  14.1400         22
  14.1600         20
  14.1800         19
  14.2000         24
  14.2200         24
  14.2400         18
  14.2600         31
  14.2800         20
  14.3000         23
  14.3200         21
  14.3400         25
  14.3600         23
  14.3800         18
  14.4000         29
  14.4200         38
  14.4400         18
  14.4600         24
  14.4800         24
  14.5000         29
  14.5200         15
  14.5400         16
  14.5600         16
  14.5800         28
  14.6000         24
  14.6200         24
  14.6400         21
  14.6600         21
  14.6800         22
  14.7000         29
  14.7200         27
  14.7400         18
  14.7600         19
  14.7800         21
  14.8000         21
  14.8200         19
  14.8400         28
  14.8600         28
  14.8800         20
  14.9000         24
  14.9200         27
  14.9400         26
  14.9600         20
  14.9800         12
  15.0000         17
  15.0200         24
  15.0400         17
  15.0600         21
  15.0800         22
  15.1000         25
  15.1200         23
  15.1400         19
  15.1600         22
  15.1800         19
  15.2000         23
  15.2200         19
  15.2400         19
  15.2600         26
  15.2800         17
  15.3000         27
  15.3200         28
  15.3400         28
  15.3600         17
  15.3800         17
  15.4000         24
  15.4200         18
  15.4400         21
  15.4600         24
  15.4800         26
  15.5000         23
  15.5200         27
  15.5400         25
  15.5600         24
  15.5800         29
  15.6000         23
  15.6200         28
  15.6400         32
  15.6600         26
  15.6800         20
  15.7000         23
  15.7200         18
  15.7400         19
  15.7600         31
  15.7800         16
  15.8000         23
  15.8200         29
  15.8400         16
  15.8600         17
  15.8800         23
  15.9000         14
  15.9200         27
  15.9400         23
  15.9600         32
  15.9800         22
  16.0000         26
  16.0200         20
  16.0400         21
  16.0600         26
  16.0800         27
  16.1000         19
  16.1200         23
  16.1400         30
  16.1600         19
  16.1800         27
  16.2000         19
  16.2200         23
  16.2400         22
  16.2600         26
  16.2800         20
  16.3000         18
  16.3200         26
  16.3400         21
  16.3600         23
  16.3800         21
  16.4000         23
  16.4200         16
  16.4400         23
  16.4600         26
  16.4800         24
  16.5000         21
  16.5200         22
  16.5400         19
  16.5600         32
  16.5800         28
  16.6000         16
  16.6200         28
  16.6400         23
  16.6600         20
  16.6800         24
  16.7000         22
  16.7200         13
  16.7400         23
  16.7600         18
  16.7800         25
  16.8000         23
  16.8200         19
  16.8400         21
  16.8600         20
  16.8800         26
  16.9000         22
  16.9200         24
  16.9400         22
  16.9600         26
  16.9800         24
  17.0000         25
  17.0200         29
  17.0400         17
  17.0600         20
  17.0800         34
  17.1000         26
  17.1200         24
  17.1400         16
  17.1600         19
  17.1800         17
  17.2000         17
  17.2200         19
  17.2400         24
  17.2600         25
  17.2800         18
  17.3000         21
  17.3200         17
  17.3400         19
  17.3600         17
  17.3800         23
  17.4000         22
  17.4200         17
  17.4400         23
  17.4600         19
  17.4800         18
  17.5000         13
  17.5200         26
  17.5400         22
  17.5600         29
  17.5800         16
  17.6000         17
  17.6200         20
  17.6400         24
  17.6600         25
  17.6800         34
  17.7000         22
  17.7200         21
  17.7400         22
  17.7600         17
  17.7800         23
  17.8000         19
  17.8200         26
  17.8400         20
  17.8600         26
  17.8800         24
  17.9000         20
  17.9200         19
  17.9400         23
  17.9600         18
  17.9800         11
  18.0000         28
  18.0200         19
  18.0400         17
  18.0600         24
  18.0800         28
  18.1000         24
  18.1200         18
  18.1400         16
  18.1600         25
  18.1800         19
  18.2000         26
  18.2200         18
  18.2400         24
  18.2600         18
  18.2800         24
  18.3000         29
  18.3200         19
  18.3400         22
  18.3600         20
  18.3800         18
  18.4000         23
  18.4200         17
  18.4400         25
  18.4600         20
  18.4800         23
  18.5000         23
  18.5200         24
  18.5400         21
  18.5600         24
  18.5800         18
  18.6000         20
  18.6200         31
  18.6400         20
  18.6600         18
  18.6800         19
  18.7000         27
  18.7200         24
  18.7400         23
  18.7600         26
  18.7800         24
  18.8000         24
  18.8200         18
  18.8400         24
  18.8600         21
  18.8800         18
  18.9000         14
  18.9200         20
  18.9400         25
  18.9600         18
  18.9800         19
  19.0000         25
  19.0200         18
  19.0400         22
  19.0600         21
  19.0800         27
  19.1000         18
  19.1200         22
  19.1400         20
  19.1600         17
  19.1800         22
  19.2000         22
  19.2200         20
  19.2400         15
  19.2600         17
  19.2800         28
  19.3000         22
  19.3200         11
  19.3400         19
  19.3600         18
  19.3800         28
  19.4000         24
  19.4200         17
  19.4400         16
  19.4600         22
  19.4800         14
  19.5000         29
  19.5200         27
  19.5400         24
  19.5600         22
  19.5800         27
  19.6000         23
  19.6200         24
  19.6400         16
  19.6600         20
  19.6800         22
  19.7000         21
  19.7200         14
  19.7400         22
  19.7600         18
  19.7800         19
  19.8000         22
  19.8200         21
  19.8400         18
  19.8600         18
  19.8800         20
  19.9000         22
  19.9200         16
  19.9400         17
  19.9600         18
  19.9800         15
  20.0000         18
  20.0200         18
  20.0400         29
  20.0600         28
  20.0800         26
  20.1000         25
  20.1200         20
  20.1400         20
  20.1600         25
  20.1800         17
  20.2000         23
  20.2200         20
  20.2400         19
  20.2600         22
  20.2800         29
  20.3000         21
  20.3200         19
  20.3400         17
  20.3600         23
  20.3800         22
  20.4000         21
  20.4200         22
  20.4400         12
  20.4600         20
  20.4800         33
  20.5000         23
  20.5200         24
  20.5400         21
  20.5600         22
  20.5800         27
  20.6000         30
  20.6200         19
  20.6400         17
  20.6600         15
  20.6800         24
  20.7000         23
  20.7200         28
  20.7400         19
  20.7600         22
  20.7800         28
  20.8000         21
  20.8200         15
  20.8400         29
  20.8600         15
  20.8800         23
  20.9000         20
  20.9200         19
  20.9400         16
  20.9600         25
  20.9800         10
  21.0000         26
  21.0200         23
  21.0400         24
  21.0600         25
  21.0800         21
  21.1000         21
  21.1200         11
  21.1400         24
  21.1600         26
  21.1800         16
  21.2000         25
  21.2200         25
  21.2400         22
  21.2600         20
  21.2800         21
  21.3000         16
  21.3200         25
  21.3400         28
  21.3600         21
  21.3800         21
  21.4000         23
  21.4200         20
  21.4400         20
  21.4600         18
  21.4800         20
  21.5000         31
  21.5200         22
  21.5400         20
  21.5600         17
  21.5800         27
  21.6000         23
  21.6200         24
  21.6400         25
  21.6600         17
  21.6800         24
  21.7000         16
  21.7200         29
  21.7400         22
  21.7600         24
  21.7800         23
  21.8000         17
  21.8200         20
  21.8400         16
  21.8600         21
  21.8800         18
  21.9000         16
  21.9200         17
  21.9400         32
  21.9600         12
  21.9800         28
  22.0000         16
  22.0200         25
  22.0400         20
  22.0600         22
  22.0800         19
  22.1000         25
  22.1200         24
  22.1400         30
  22.1600         19
  22.1800         19
  22.2000         16
  22.2200         11
  22.2400         25
  22.2600         19
  22.2800         16
  22.3000         18
  22.3200         21
  22.3400         23
  22.3600         23
  22.3800         25
  22.4000         31
  22.4200         24
  22.4400         19
  22.4600         22
  22.4800         27
  22.5000         22
  22.5200         25
  22.5400         13
  22.5600         32
  22.5800         24
  22.6000         21
  22.6200         30
  22.6400         21
  22.6600         28
  22.6800         19
  22.7000         17
  22.7200         19
  22.7400         18
  22.7600         16
  22.7800         23
  22.8000         15
  22.8200         26
  22.8400         15
  22.8600         22
  22.8800         20
  22.9000         22
  22.9200         27
  22.9400         18
  22.9600         19
  22.9800         27
  23.0000         15